,Session_Name_,Trial_Index_,Trial_Recycled_,block_number,pic_1,pic_type1_1,expected,pic_search_1,TRIAL_INDEX,RESPONSE,KEYPRESS,RT,DISPLAY_ON_TIME,KEY_RESPONSE_TIME,seq,presenting_type,prop_presentation
0,D260722,1,False,0,Gac_1.jpg,0,s,Gac_1_17.png,1,correct,s,2556,98889.04,101445.63,3,14,17
1,D260722,2,False,0,ZF_1.jpg,0,s,ZF_1_17.png,2,incorrect,w,1118,107383.96,108502.48,3,14,17
2,D260722,3,False,0,Ackee_1.jpg,0,q,Ackee_1_14.png,3,correct,q,766,114438.12,115204.99,3,15,14
3,D260722,4,False,0,Noni_1.jpg,0,q,Noni_1_14.png,4,correct,q,1039,121142.04,122181.94,3,15,14
4,D260722,5,False,0,Sapota_1.jpg,0,w,Sapota_1_15.png,5,correct,w,1143,128126.05,129269.5,3,16,15
5,D260722,6,False,0,Ake_1.jpg,0,w,Ake_1_15.png,6,correct,w,1100,135210.22,136310.65,3,16,15
6,D260722,7,False,0,Tamanid_1.jpg,0,a,Tamanid_1_16.png,7,correct,a,3044,142274.32,145318.39,3,17,16
7,D260722,8,False,0,Finger_1.jpg,0,a,Finger_1_16.png,8,incorrect,s,1115,151289.58,152405.45,3,17,16
8,D260722,9,False,0,Ake_1.jpg,0,a,Ake_1_16.png,9,correct,a,1279,158373.72,159653.52,3,16,16
9,D260722,10,False,0,Tamanid_1.jpg,0,s,Tamanid_1_17.png,10,correct,s,828,165607.89,166436.77,3,17,17
10,D260722,11,False,0,Ackee_1.jpg,0,w,Ackee_1_15.png,11,correct,w,3072,172371.86,175444.68,3,15,15
11,D260722,12,False,0,Sapota_1.jpg,0,a,Sapota_1_16.png,12,correct,a,1707,181387.12,183094.34,3,16,16
12,D260722,13,False,0,Gac_1.jpg,0,q,Gac_1_14.png,13,correct,q,724,189041.57,189766.36,3,14,14
13,D260722,14,False,0,ZF_1.jpg,0,q,ZF_1_14.png,14,correct,q,795,195705.47,196500.96,3,14,14
14,D260722,15,False,0,Noni_1.jpg,0,w,Noni_1_15.png,15,correct,w,557,202439.42,202997.24,3,15,15
15,D260722,16,False,0,Finger_1.jpg,0,s,Finger_1_17.png,16,correct,s,625,208963.22,209588.76,3,17,17
16,D260722,17,False,0,ZF_1.jpg,0,w,ZF_1_15.png,17,correct,w,990,215527.02,216518.0,3,14,15
17,D260722,18,False,0,Tamanid_1.jpg,0,q,Tamanid_1_14.png,18,incorrect,s,1368,222461.11,223829.62,3,17,14
18,D260722,19,False,0,Finger_1.jpg,0,q,Finger_1_14.png,19,correct,q,843,229785.39,230628.71,3,17,14
19,D260722,20,False,0,Sapota_1.jpg,0,s,Sapota_1_17.png,20,correct,s,876,236569.27,237446.1,3,16,17
20,D260722,21,False,0,Noni_1.jpg,0,a,Noni_1_16.png,21,correct,a,1059,243393.29,244452.98,3,15,16
21,D260722,22,False,0,Ake_1.jpg,0,s,Ake_1_17.png,22,correct,s,676,250417.37,251093.77,3,16,17
22,D260722,23,False,0,Ackee_1.jpg,0,a,Ackee_1_16.png,23,correct,a,1294,257031.24,258325.91,3,15,16
23,D260722,24,False,0,Gac_1.jpg,0,w,Gac_1_15.png,24,correct,w,999,264255.43,265254.52,3,14,15
24,D260722,25,False,0,Ackee_1.jpg,0,s,Ackee_1_17.png,25,correct,s,838,271199.51,272038.05,3,15,17
25,D260722,26,False,0,Gac_1.jpg,0,a,Gac_1_16.png,26,correct,a,976,277973.46,278950.38,3,14,16
26,D260722,27,False,0,ZF_1.jpg,0,a,ZF_1_16.png,27,correct,a,1357,284887.44,286245.31,3,14,16
27,D260722,28,False,0,Tamanid_1.jpg,0,w,Tamanid_1_15.png,28,correct,w,1936,292181.71,294118.14,3,17,15
28,D260722,29,False,0,Finger_1.jpg,0,w,Finger_1_15.png,29,correct,w,931,300066.32,300997.71,3,17,15
29,D260722,30,False,0,Sapota_1.jpg,0,q,Sapota_1_14.png,30,correct,q,1977,306940.36,308918.35,3,16,14
30,D260722,31,False,0,Noni_1.jpg,0,s,Noni_1_17.png,31,correct,s,1397,314864.97,316262.54,3,15,17
31,D260722,32,False,0,Ake_1.jpg,0,q,Ake_1_14.png,32,correct,q,804,322209.22,323013.8,3,16,14
0,D150922,1,False,0,Gac_1.jpg,0,s,Gac_1_17.png,1,correct,s,1196,92456.46,93652.76,32,17,17
1,D150922,2,False,0,ZF_1.jpg,0,s,ZF_1_17.png,2,correct,s,906,99610.6,100516.99,32,17,17
2,D150922,3,False,0,Ackee_1.jpg,0,q,Ackee_1_14.png,3,correct,q,3267,106464.57,109731.83,32,14,14
3,D150922,4,False,0,Noni_1.jpg,0,q,Noni_1_14.png,4,correct,q,1974,115709.97,117684.14,32,14,14
4,D150922,5,False,0,Sapota_1.jpg,0,w,Sapota_1_15.png,5,correct,w,1873,123634.63,125507.85,32,15,15
5,D150922,6,False,0,Ake_1.jpg,0,w,Ake_1_15.png,6,correct,w,1396,131489.2,132885.29,32,15,15
6,D150922,7,False,0,Tamanid_1.jpg,0,a,Tamanid_1_16.png,7,correct,a,1443,138833.45,140276.66,32,16,16
7,D150922,8,False,0,Finger_1.jpg,0,a,Finger_1_16.png,8,correct,a,1361,146257.8,147619.63,32,16,16
8,D150922,9,False,0,Ake_1.jpg,0,a,Ake_1_16.png,9,correct,a,1930,153562.05,155492.35,32,15,16
9,D150922,10,False,0,Tamanid_1.jpg,0,s,Tamanid_1_17.png,10,correct,s,2186,161466.68,163652.9,32,16,17
10,D150922,11,False,0,Ackee_1.jpg,0,w,Ackee_1_15.png,11,correct,w,1379,169601.42,170980.81,32,14,15
11,D150922,12,False,0,Sapota_1.jpg,0,a,Sapota_1_16.png,12,correct,a,1118,176965.65,178084.38,32,15,16
12,D150922,13,False,0,Gac_1.jpg,0,q,Gac_1_14.png,13,correct,q,950,184029.82,184980.23,32,17,14
13,D150922,14,False,0,ZF_1.jpg,0,q,ZF_1_14.png,14,correct,q,903,190923.79,191827.44,32,17,14
14,D150922,15,False,0,Noni_1.jpg,0,w,Noni_1_15.png,15,correct,w,2364,197767.83,200132.31,32,14,15
15,D150922,16,False,0,Finger_1.jpg,0,s,Finger_1_17.png,16,correct,s,3303,206092.62,209396.02,32,16,17
16,D150922,17,False,0,ZF_1.jpg,0,w,ZF_1_15.png,17,correct,w,1436,215368.02,216804.09,32,17,15
17,D150922,18,False,0,Tamanid_1.jpg,0,q,Tamanid_1_14.png,18,correct,q,2110,222742.37,224852.91,32,16,14
18,D150922,19,False,0,Finger_1.jpg,0,q,Finger_1_14.png,19,correct,q,2371,230817.02,233188.26,32,16,14
19,D150922,20,False,0,Sapota_1.jpg,0,s,Sapota_1_17.png,20,correct,s,3261,239141.94,242403.58,32,15,17
20,D150922,21,False,0,Noni_1.jpg,0,a,Noni_1_16.png,21,correct,a,4623,248357.24,252981.13,32,14,16
21,D150922,22,False,0,Ake_1.jpg,0,s,Ake_1_17.png,22,correct,s,1069,258933.46,260003.13,32,15,17
22,D150922,23,False,0,Ackee_1.jpg,0,a,Ackee_1_16.png,23,correct,a,1112,265947.49,267059.82,32,14,16
23,D150922,24,False,0,Gac_1.jpg,0,w,Gac_1_15.png,24,correct,w,1005,273031.62,274036.93,32,17,15
24,D150922,25,False,0,Ackee_1.jpg,0,s,Ackee_1_17.png,25,correct,s,1173,280015.73,281188.9,32,14,17
25,D150922,26,False,0,Gac_1.jpg,0,a,Gac_1_16.png,26,correct,a,1663,287139.89,288803.4,32,17,16
26,D150922,27,False,0,ZF_1.jpg,0,a,ZF_1_16.png,27,correct,a,780,294744.31,295524.84,32,17,16
27,D150922,28,False,0,Tamanid_1.jpg,0,w,Tamanid_1_15.png,28,correct,w,1741,301478.19,303219.84,32,16,15
28,D150922,29,False,0,Finger_1.jpg,0,w,Finger_1_15.png,29,correct,w,1177,309162.7,310339.92,32,16,15
29,D150922,30,False,0,Sapota_1.jpg,0,q,Sapota_1_14.png,30,correct,q,1173,316286.87,317460.49,32,15,14
30,D150922,31,False,0,Noni_1.jpg,0,s,Noni_1_17.png,31,correct,s,930,323411.01,324341.1,32,14,17
31,D150922,32,False,0,Ake_1.jpg,0,q,Ake_1_14.png,32,correct,q,1469,330295.02,331764.86,32,15,14
0,M290722,1,False,0,Gac_1.jpg,0,s,Gac_1_17.png,1,correct,s,2639,772228.62,774867.95,15,16,17
1,M290722,2,False,0,ZF_1.jpg,0,s,ZF_1_17.png,2,incorrect,w,1868,780823.62,782692.02,15,16,17
2,M290722,3,False,0,Ackee_1.jpg,0,q,Ackee_1_14.png,3,correct,q,1094,788638.13,789732.61,15,17,14
3,M290722,4,False,0,Noni_1.jpg,0,q,Noni_1_14.png,4,correct,q,3048,795692.26,798740.29,15,17,14
4,M290722,5,False,0,Sapota_1.jpg,0,w,Sapota_1_15.png,5,correct,w,1350,804717.51,806068.48,15,14,15
5,M290722,6,False,0,Ake_1.jpg,0,w,Ake_1_15.png,6,correct,w,3407,812021.84,815428.89,15,14,15
6,M290722,7,False,0,Tamanid_1.jpg,0,a,Tamanid_1_16.png,7,incorrect,w,1090,821377.27,822467.57,15,15,16
7,M290722,8,False,0,Finger_1.jpg,0,a,Finger_1_16.png,8,incorrect,w,1245,828421.36,829667.31,15,15,16
8,M290722,9,False,0,Ake_1.jpg,0,a,Ake_1_16.png,9,correct,a,1350,835645.55,836995.74,15,14,16
9,M290722,10,False,0,Tamanid_1.jpg,0,s,Tamanid_1_17.png,10,incorrect,w,1213,842949.86,844163.73,15,15,17
10,M290722,11,False,0,Ackee_1.jpg,0,w,Ackee_1_15.png,11,correct,w,866,850114.03,850980.26,15,17,15
11,M290722,12,False,0,Sapota_1.jpg,0,a,Sapota_1_16.png,12,incorrect,q,1011,856927.95,857939.58,15,14,16
12,M290722,13,False,0,Gac_1.jpg,0,q,Gac_1_14.png,13,incorrect,a,2894,863892.07,866786.95,15,16,14
13,M290722,14,False,0,ZF_1.jpg,0,q,ZF_1_14.png,14,correct,q,1133,872727.25,873860.82,15,16,14
14,M290722,15,False,0,Noni_1.jpg,0,w,Noni_1_15.png,15,correct,w,2203,879801.32,882004.93,15,17,15
15,M290722,16,False,0,Finger_1.jpg,0,s,Finger_1_17.png,16,incorrect,w,1343,887956.1,889299.93,15,15,17
16,M290722,17,False,0,ZF_1.jpg,0,w,ZF_1_15.png,17,correct,w,1469,895270.35,896739.74,15,16,15
17,M290722,18,False,0,Tamanid_1.jpg,0,q,Tamanid_1_14.png,18,incorrect,w,909,902694.67,903604.36,15,15,14
18,M290722,19,False,0,Finger_1.jpg,0,q,Finger_1_14.png,19,correct,q,889,909578.72,910468.63,15,15,14
19,M290722,20,False,0,Sapota_1.jpg,0,s,Sapota_1_17.png,20,correct,s,1222,916412.68,917635.15,15,14,17
20,M290722,21,False,0,Noni_1.jpg,0,a,Noni_1_16.png,21,correct,a,1597,923606.87,925204.1,15,17,16
21,M290722,22,False,0,Ake_1.jpg,0,s,Ake_1_17.png,22,correct,s,1316,931151.26,932467.62,15,14,17
22,M290722,23,False,0,Ackee_1.jpg,0,a,Ackee_1_16.png,23,correct,a,1795,938415.46,940211.22,15,17,16
23,M290722,24,False,0,Gac_1.jpg,0,w,Gac_1_15.png,24,correct,w,948,946160.04,947108.48,15,16,15
24,M290722,25,False,0,Ackee_1.jpg,0,s,Ackee_1_17.png,25,correct,s,1941,953054.07,954995.39,15,17,17
25,M290722,26,False,0,Gac_1.jpg,0,a,Gac_1_16.png,26,correct,a,1182,960948.67,962130.93,15,16,16
26,M290722,27,False,0,ZF_1.jpg,0,a,ZF_1_16.png,27,correct,a,1579,968072.78,969652.27,15,16,16
27,M290722,28,False,0,Tamanid_1.jpg,0,w,Tamanid_1_15.png,28,correct,w,685,975607.15,976292.77,15,15,15
28,M290722,29,False,0,Finger_1.jpg,0,w,Finger_1_15.png,29,correct,w,1027,982241.09,983268.48,15,15,15
29,M290722,30,False,0,Sapota_1.jpg,0,q,Sapota_1_14.png,30,correct,q,1425,989235.17,990660.34,15,14,14
30,M290722,31,False,0,Noni_1.jpg,0,s,Noni_1_17.png,31,correct,s,605,996629.4,997235.39,15,17,17
31,M290722,32,False,0,Ake_1.jpg,0,q,Ake_1_14.png,32,incorrect,a,1093,1003183.24,1004276.47,15,14,14
0,O270722,1,False,0,Gac_1.jpg,0,s,Gac_1_17.png,1,correct,s,824,89673.28,90497.57,9,17,17
1,O270722,2,False,0,ZF_1.jpg,0,s,ZF_1_17.png,2,correct,s,900,96477.19,97377.7,9,17,17
2,O270722,3,False,0,Ackee_1.jpg,0,q,Ackee_1_14.png,3,incorrect,a,683,103351.21,104035.2,9,14,14
3,O270722,4,False,0,Noni_1.jpg,0,q,Noni_1_14.png,4,correct,q,791,109995.11,110786.95,9,14,14
4,O270722,5,False,0,Sapota_1.jpg,0,w,Sapota_1_15.png,5,correct,w,1056,116739.01,117795.31,9,15,15
5,O270722,6,False,0,Ake_1.jpg,0,w,Ake_1_15.png,6,correct,w,786,123743.17,124529.35,9,15,15
6,O270722,7,False,0,Tamanid_1.jpg,0,a,Tamanid_1_16.png,7,incorrect,s,1498,130487.1,131985.58,9,16,16
7,O270722,8,False,0,Finger_1.jpg,0,a,Finger_1_16.png,8,correct,a,2540,137941.44,140481.78,9,16,16
8,O270722,9,False,0,Ake_1.jpg,0,a,Ake_1_16.png,9,correct,a,967,146426.39,147394.09,9,15,16
9,O270722,10,False,0,Tamanid_1.jpg,0,s,Tamanid_1_17.png,10,correct,s,1878,153340.42,155218.67,9,16,17
10,O270722,11,False,0,Ackee_1.jpg,0,w,Ackee_1_15.png,11,correct,w,900,161165.0,162065.42,9,14,15
11,O270722,12,False,0,Sapota_1.jpg,0,a,Sapota_1_16.png,12,correct,a,1147,168038.99,169186.05,9,15,16
12,O270722,13,False,0,Gac_1.jpg,0,q,Gac_1_14.png,13,correct,q,661,175133.14,175794.72,9,17,14
13,O270722,14,False,0,ZF_1.jpg,0,q,ZF_1_14.png,14,correct,q,668,181766.98,182435.1,9,17,14
14,O270722,15,False,0,Noni_1.jpg,0,w,Noni_1_15.png,15,correct,w,646,188380.86,189027.15,9,14,15
15,O270722,16,False,0,Finger_1.jpg,0,s,Finger_1_17.png,16,incorrect,w,1539,194974.72,196514.33,9,16,17
16,O270722,17,False,0,ZF_1.jpg,0,w,ZF_1_15.png,17,correct,w,1037,202469.06,203506.07,9,17,15
17,O270722,18,False,0,Tamanid_1.jpg,0,q,Tamanid_1_14.png,18,correct,q,1110,209453.18,210563.23,9,16,14
18,O270722,19,False,0,Finger_1.jpg,0,q,Finger_1_14.png,19,incorrect,a,1654,216507.29,218162.19,9,16,14
19,O270722,20,False,0,Sapota_1.jpg,0,s,Sapota_1_17.png,20,correct,s,1523,224111.67,225635.0,9,15,17
20,O270722,21,False,0,Noni_1.jpg,0,a,Noni_1_16.png,21,correct,a,1084,231606.03,232690.15,9,14,16
21,O270722,22,False,0,Ake_1.jpg,0,s,Ake_1_17.png,22,correct,s,669,238660.16,239329.39,9,15,17
22,O270722,23,False,0,Ackee_1.jpg,0,a,Ackee_1_16.png,23,correct,a,1070,245284.06,246354.85,9,14,16
23,O270722,24,False,0,Gac_1.jpg,0,w,Gac_1_15.png,24,correct,w,653,252308.16,252961.89,9,17,15
24,O270722,25,False,0,Ackee_1.jpg,0,s,Ackee_1_17.png,25,incorrect,a,749,258902.02,259651.33,9,14,17
25,O270722,26,False,0,Gac_1.jpg,0,a,Gac_1_16.png,26,correct,a,1126,265595.91,266722.7,9,17,16
26,O270722,27,False,0,ZF_1.jpg,0,a,ZF_1_16.png,27,incorrect,s,1365,272670.01,274035.39,9,17,16
27,O270722,28,False,0,Tamanid_1.jpg,0,w,Tamanid_1_15.png,28,incorrect,a,834,279984.33,280819.05,9,16,15
28,O270722,29,False,0,Finger_1.jpg,0,w,Finger_1_15.png,29,correct,w,1409,286768.21,288177.87,9,16,15
29,O270722,30,False,0,Sapota_1.jpg,0,q,Sapota_1_14.png,30,correct,q,1464,294122.51,295587.13,9,15,14
30,O270722,31,False,0,Noni_1.jpg,0,s,Noni_1_17.png,31,correct,s,893,301556.83,302450.68,9,14,17
31,O270722,32,False,0,Ake_1.jpg,0,q,Ake_1_14.png,32,correct,q,836,308430.87,309267.36,9,15,14
0,K280722,1,False,0,Gac_1.jpg,0,s,Gac_1_17.png,1,correct,s,1015,91651.76,92667.55,12,15,17
1,K280722,2,False,0,ZF_1.jpg,0,s,ZF_1_17.png,2,correct,s,788,98615.85,99404.04,12,15,17
2,K280722,3,False,0,Ackee_1.jpg,0,q,Ackee_1_14.png,3,correct,q,1589,105349.78,106939.47,12,16,14
3,K280722,4,False,0,Noni_1.jpg,0,q,Noni_1_14.png,4,correct,q,1088,112924.21,114013.12,12,16,14
4,K280722,5,False,0,Sapota_1.jpg,0,w,Sapota_1_15.png,5,correct,w,1227,119968.29,121195.95,12,17,15
5,K280722,6,False,0,Ake_1.jpg,0,w,Ake_1_15.png,6,correct,w,1110,127142.46,128253.08,12,17,15
6,K280722,7,False,0,Tamanid_1.jpg,0,a,Tamanid_1_16.png,7,correct,a,1581,134206.55,135787.96,12,14,16
7,K280722,8,False,0,Finger_1.jpg,0,a,Finger_1_16.png,8,incorrect,q,1870,141740.95,143611.38,12,14,16
8,K280722,9,False,0,Ake_1.jpg,0,a,Ake_1_16.png,9,correct,a,1262,149565.57,150827.65,12,17,16
9,K280722,10,False,0,Tamanid_1.jpg,0,s,Tamanid_1_17.png,10,correct,s,1951,156779.73,158731.49,12,14,17
10,K280722,11,False,0,Ackee_1.jpg,0,w,Ackee_1_15.png,11,correct,w,905,164674.4,165579.9,12,16,15
11,K280722,12,False,0,Sapota_1.jpg,0,a,Sapota_1_16.png,12,correct,a,882,171528.34,172411.34,12,17,16
12,K280722,13,False,0,Gac_1.jpg,0,q,Gac_1_14.png,13,correct,q,1165,178382.35,179547.41,12,15,14
13,K280722,14,False,0,ZF_1.jpg,0,q,ZF_1_14.png,14,correct,q,835,185496.47,186331.94,12,15,14
14,K280722,15,False,0,Noni_1.jpg,0,w,Noni_1_15.png,15,correct,w,1357,192270.45,193628.15,12,16,15
15,K280722,16,False,0,Finger_1.jpg,0,s,Finger_1_17.png,16,correct,s,1300,199574.68,200875.51,12,14,17
16,K280722,17,False,0,ZF_1.jpg,0,w,ZF_1_15.png,17,correct,w,1048,206819.01,207867.74,12,15,15
17,K280722,18,False,0,Tamanid_1.jpg,0,q,Tamanid_1_14.png,18,correct,q,1110,213813.06,214923.55,12,14,14
18,K280722,19,False,0,Finger_1.jpg,0,q,Finger_1_14.png,19,correct,q,1599,220877.14,222476.79,12,14,14
19,K280722,20,False,0,Sapota_1.jpg,0,s,Sapota_1_17.png,20,correct,s,1049,228451.55,229500.67,12,17,17
20,K280722,21,False,0,Noni_1.jpg,0,a,Noni_1_16.png,21,correct,a,1884,235455.68,237340.55,12,16,16
21,K280722,22,False,0,Ake_1.jpg,0,s,Ake_1_17.png,22,correct,s,2269,243310.23,245580.12,12,17,17
22,K280722,23,False,0,Ackee_1.jpg,0,a,Ackee_1_16.png,23,correct,a,1366,251525.02,252891.51,12,16,16
23,K280722,24,False,0,Gac_1.jpg,0,w,Gac_1_15.png,24,correct,w,1140,258839.28,259980.23,12,15,15
24,K280722,25,False,0,Ackee_1.jpg,0,s,Ackee_1_17.png,25,correct,s,987,265953.43,266941.18,12,16,17
25,K280722,26,False,0,Gac_1.jpg,0,a,Gac_1_16.png,26,correct,a,1173,272887.46,274060.93,12,15,16
26,K280722,27,False,0,ZF_1.jpg,0,a,ZF_1_16.png,27,correct,a,794,280001.64,280795.65,12,15,16
27,K280722,28,False,0,Tamanid_1.jpg,0,w,Tamanid_1_15.png,28,correct,w,2050,286745.55,288795.7,12,14,15
28,K280722,29,False,0,Finger_1.jpg,0,w,Finger_1_15.png,29,correct,w,888,294740.21,295628.78,12,14,15
29,K280722,30,False,0,Sapota_1.jpg,0,q,Sapota_1_14.png,30,correct,q,934,301574.19,302508.48,12,17,14
30,K280722,31,False,0,Noni_1.jpg,0,s,Noni_1_17.png,31,correct,s,737,308458.27,309195.55,12,16,17
31,K280722,32,False,0,Ake_1.jpg,0,q,Ake_1_14.png,32,correct,q,811,315152.11,315963.41,12,17,14
0,Y190922,1,False,0,Gac_1.jpg,0,s,Gac_1_17.png,1,correct,s,3355,68828.08,72183.51,21,15,17
1,Y190922,2,False,0,ZF_1.jpg,0,s,ZF_1_17.png,2,correct,s,2440,78143.46,80583.99,21,15,17
2,Y190922,3,False,0,Ackee_1.jpg,0,q,Ackee_1_14.png,3,correct,q,1917,86538.43,88455.97,21,16,14
3,Y190922,4,False,0,Noni_1.jpg,0,q,Noni_1_14.png,4,correct,q,1588,94403.01,95991.56,21,16,14
4,Y190922,5,False,0,Sapota_1.jpg,0,w,Sapota_1_15.png,5,correct,w,1772,101947.37,103719.76,21,17,15
5,Y190922,6,False,0,Ake_1.jpg,0,w,Ake_1_15.png,6,correct,w,919,109681.85,110600.86,21,17,15
6,Y190922,7,False,0,Tamanid_1.jpg,0,a,Tamanid_1_16.png,7,correct,a,1586,116565.88,118152.5,21,14,16
7,Y190922,8,False,0,Finger_1.jpg,0,a,Finger_1_16.png,8,correct,a,1338,124110.29,125448.41,21,14,16
8,Y190922,9,False,0,Ake_1.jpg,0,a,Ake_1_16.png,9,correct,a,1528,131424.6,132952.88,21,17,16
9,Y190922,10,False,0,Tamanid_1.jpg,0,s,Tamanid_1_17.png,10,correct,s,1275,138908.91,140184.39,21,14,17
10,Y190922,11,False,0,Ackee_1.jpg,0,w,Ackee_1_15.png,11,correct,w,805,146163.18,146969.04,21,16,15
11,Y190922,12,False,0,Sapota_1.jpg,0,a,Sapota_1_16.png,12,correct,a,1651,152917.06,154568.17,21,17,16
12,Y190922,13,False,0,Gac_1.jpg,0,q,Gac_1_14.png,13,correct,q,2270,160521.5,162792.3,21,15,14
13,Y190922,14,False,0,ZF_1.jpg,0,q,ZF_1_14.png,14,correct,q,948,168756.29,169705.07,21,15,14
14,Y190922,15,False,0,Noni_1.jpg,0,w,Noni_1_15.png,15,correct,w,923,175660.31,176583.72,21,16,15
15,Y190922,16,False,0,Finger_1.jpg,0,s,Finger_1_17.png,16,correct,s,2386,182534.37,184920.52,21,14,17
16,Y190922,17,False,0,ZF_1.jpg,0,w,ZF_1_15.png,17,correct,w,1721,190879.25,192600.56,21,15,15
17,Y190922,18,False,0,Tamanid_1.jpg,0,q,Tamanid_1_14.png,18,correct,q,2333,198553.67,200887.38,21,14,14
18,Y190922,19,False,0,Finger_1.jpg,0,q,Finger_1_14.png,19,correct,q,3984,206838.54,210823.35,21,14,14
19,Y190922,20,False,0,Sapota_1.jpg,0,s,Sapota_1_17.png,20,correct,s,2594,216774.35,219368.41,21,17,17
20,Y190922,21,False,0,Noni_1.jpg,0,a,Noni_1_16.png,21,correct,a,2465,225319.32,227784.54,21,16,16
21,Y190922,22,False,0,Ake_1.jpg,0,s,Ake_1_17.png,22,correct,s,2548,233764.22,236312.26,21,17,17
22,Y190922,23,False,0,Ackee_1.jpg,0,a,Ackee_1_16.png,23,correct,a,2198,242289.18,244487.63,21,16,16
23,Y190922,24,False,0,Gac_1.jpg,0,w,Gac_1_15.png,24,correct,w,1542,250433.94,251976.87,21,15,15
24,Y190922,25,False,0,Ackee_1.jpg,0,s,Ackee_1_17.png,25,correct,s,815,257928.3,258743.55,21,16,17
25,Y190922,26,False,0,Gac_1.jpg,0,a,Gac_1_16.png,26,correct,a,1993,264702.25,266696.03,21,15,16
26,Y190922,27,False,0,ZF_1.jpg,0,a,ZF_1_16.png,27,correct,a,1222,272656.93,273879.37,21,15,16
27,Y190922,28,False,0,Tamanid_1.jpg,0,w,Tamanid_1_15.png,28,correct,w,1665,279831.04,281496.11,21,14,15
28,Y190922,29,False,0,Finger_1.jpg,0,w,Finger_1_15.png,29,correct,w,1266,287445.53,288711.92,21,14,15
29,Y190922,30,False,0,Sapota_1.jpg,0,q,Sapota_1_14.png,30,correct,q,1145,294669.75,295815.13,21,17,14
30,Y190922,31,False,0,Noni_1.jpg,0,s,Noni_1_17.png,31,correct,s,2614,301793.86,304408.35,21,16,17
31,Y190922,32,False,0,Ake_1.jpg,0,q,Ake_1_14.png,32,correct,q,1552,310358.87,311911.08,21,17,14
0,S120922,1,False,0,Gac_1.jpg,0,s,Gac_1_17.png,1,correct,s,1331,102719.23,104051.14,23,16,17
1,S120922,2,False,0,ZF_1.jpg,0,s,ZF_1_17.png,2,correct,s,1295,110003.43,111299.34,23,16,17
2,S120922,3,False,0,Ackee_1.jpg,0,q,Ackee_1_14.png,3,correct,q,1431,117277.71,118708.72,23,17,14
3,S120922,4,False,0,Noni_1.jpg,0,q,Noni_1_14.png,4,correct,q,1406,124661.95,126068.12,23,17,14
4,S120922,5,False,0,Sapota_1.jpg,0,w,Sapota_1_15.png,5,correct,w,1300,132016.28,133316.6,23,14,15
5,S120922,6,False,0,Ake_1.jpg,0,w,Ake_1_15.png,6,correct,w,1085,139270.46,140355.87,23,14,15
6,S120922,7,False,0,Tamanid_1.jpg,0,a,Tamanid_1_16.png,7,correct,a,1206,146334.62,147540.66,23,15,16
7,S120922,8,False,0,Finger_1.jpg,0,a,Finger_1_16.png,8,correct,a,1258,153498.78,154756.81,23,15,16
8,S120922,9,False,0,Ake_1.jpg,0,a,Ake_1_16.png,9,correct,a,1268,160702.98,161971.36,23,14,16
9,S120922,10,False,0,Tamanid_1.jpg,0,s,Tamanid_1_17.png,10,correct,s,1287,167917.21,169204.37,23,15,17
10,S120922,11,False,0,Ackee_1.jpg,0,w,Ackee_1_15.png,11,correct,w,2752,175171.39,177923.81,23,17,15
11,S120922,12,False,0,Sapota_1.jpg,0,a,Sapota_1_16.png,12,correct,a,1198,183876.47,185075.05,23,14,16
12,S120922,13,False,0,Gac_1.jpg,0,q,Gac_1_14.png,13,correct,q,791,191020.62,191812.6,23,16,14
13,S120922,14,False,0,ZF_1.jpg,0,q,ZF_1_14.png,14,correct,q,1326,197764.52,199091.37,23,16,14
14,S120922,15,False,0,Noni_1.jpg,0,w,Noni_1_15.png,15,correct,w,1140,205038.83,206179.63,23,17,15
15,S120922,16,False,0,Finger_1.jpg,0,s,Finger_1_17.png,16,correct,s,3033,212122.93,215156.03,23,15,17
16,S120922,17,False,0,ZF_1.jpg,0,w,ZF_1_15.png,17,correct,w,1231,221108.13,222339.4,23,16,15
17,S120922,18,False,0,Tamanid_1.jpg,0,q,Tamanid_1_14.png,18,correct,q,686,228292.34,228979.04,23,15,14
18,S120922,19,False,0,Finger_1.jpg,0,q,Finger_1_14.png,19,correct,q,1444,234926.22,236371.06,23,15,14
19,S120922,20,False,0,Sapota_1.jpg,0,s,Sapota_1_17.png,20,correct,s,834,242320.48,243155.04,23,14,17
20,S120922,21,False,0,Noni_1.jpg,0,a,Noni_1_16.png,21,correct,a,2254,249124.49,251378.79,23,17,16
21,S120922,22,False,0,Ake_1.jpg,0,s,Ake_1_17.png,22,correct,s,1201,257329.25,258530.74,23,14,17
22,S120922,23,False,0,Ackee_1.jpg,0,a,Ackee_1_16.png,23,correct,a,3033,264473.43,267506.71,23,17,16
23,S120922,24,False,0,Gac_1.jpg,0,w,Gac_1_15.png,24,correct,w,794,273448.62,274242.97,23,16,15
24,S120922,25,False,0,Ackee_1.jpg,0,s,Ackee_1_17.png,25,correct,s,1059,280192.53,281252.14,23,17,17
25,S120922,26,False,0,Gac_1.jpg,0,a,Gac_1_16.png,26,correct,a,685,287206.62,287892.05,23,16,16
26,S120922,27,False,0,ZF_1.jpg,0,a,ZF_1_16.png,27,incorrect,q,989,293830.5,294819.73,23,16,16
27,S120922,28,False,0,Tamanid_1.jpg,0,w,Tamanid_1_15.png,28,correct,w,1255,300764.52,302020.13,23,15,15
28,S120922,29,False,0,Finger_1.jpg,0,w,Finger_1_15.png,29,correct,w,1468,307958.73,309427.03,23,15,15
29,S120922,30,False,0,Sapota_1.jpg,0,q,Sapota_1_14.png,30,correct,q,1141,315373.03,316514.8,23,14,14
30,S120922,31,False,0,Noni_1.jpg,0,s,Noni_1_17.png,31,correct,s,736,322467.18,323203.61,23,17,17
31,S120922,32,False,0,Ake_1.jpg,0,q,Ake_1_14.png,32,correct,q,2659,329151.04,331810.75,23,14,14
0,M130922,1,False,0,Gac_1.jpg,0,s,Gac_1_17.png,1,correct,s,3844,79202.3,83047.15,26,14,17
1,M130922,2,False,0,ZF_1.jpg,0,s,ZF_1_17.png,2,correct,s,2557,89017.93,91575.61,26,14,17
2,M130922,3,False,0,Ackee_1.jpg,0,q,Ackee_1_14.png,3,correct,q,2126,97512.93,99639.38,26,15,14
3,M130922,4,False,0,Noni_1.jpg,0,q,Noni_1_14.png,4,correct,q,2413,105577.56,107991.1,26,15,14
4,M130922,5,False,0,Sapota_1.jpg,0,w,Sapota_1_15.png,5,correct,w,1312,113942.48,115255.28,26,16,15
5,M130922,6,False,0,Ake_1.jpg,0,w,Ake_1_15.png,6,correct,w,1408,121206.73,122615.55,26,16,15
6,M130922,7,False,0,Tamanid_1.jpg,0,a,Tamanid_1_16.png,7,incorrect,MISSING_DATA,-161359,128591.03,-32768.0,26,17,16
7,M130922,8,False,0,Finger_1.jpg,0,a,Finger_1_16.png,8,correct,a,2322,139587.39,141909.62,26,17,16
8,M130922,9,False,0,Ake_1.jpg,0,a,Ake_1_16.png,9,correct,a,2273,147862.2,150135.24,26,16,16
9,M130922,10,False,0,Tamanid_1.jpg,0,s,Tamanid_1_17.png,10,incorrect,MISSING_DATA,-188855,156087.04,-32768.0,26,17,17
10,M130922,11,False,0,Ackee_1.jpg,0,w,Ackee_1_15.png,11,correct,w,2118,167103.4,169222.01,26,15,15
11,M130922,12,False,0,Sapota_1.jpg,0,a,Sapota_1_16.png,12,correct,a,2597,175168.12,177765.76,26,16,16
12,M130922,13,False,0,Gac_1.jpg,0,q,Gac_1_14.png,13,correct,q,1189,183713.08,184902.21,26,14,14
13,M130922,14,False,0,ZF_1.jpg,0,q,ZF_1_14.png,14,correct,q,1032,190847.23,191879.45,26,14,14
14,M130922,15,False,0,Noni_1.jpg,0,w,Noni_1_15.png,15,correct,w,1423,197831.3,199254.92,26,15,15
15,M130922,16,False,0,Finger_1.jpg,0,s,Finger_1_17.png,16,correct,s,1850,205195.63,207046.11,26,17,17
16,M130922,17,False,0,ZF_1.jpg,0,w,ZF_1_15.png,17,correct,w,841,212990.16,213831.43,26,14,15
17,M130922,18,False,0,Tamanid_1.jpg,0,q,Tamanid_1_14.png,18,incorrect,s,3545,219774.08,223319.11,26,17,14
18,M130922,19,False,0,Finger_1.jpg,0,q,Finger_1_14.png,19,correct,q,1499,229259.59,230758.8,26,17,14
19,M130922,20,False,0,Sapota_1.jpg,0,s,Sapota_1_17.png,20,correct,s,2833,236723.95,239557.65,26,16,17
20,M130922,21,False,0,Noni_1.jpg,0,a,Noni_1_16.png,21,correct,a,2316,245529.12,247845.65,26,15,16
21,M130922,22,False,0,Ake_1.jpg,0,s,Ake_1_17.png,22,correct,s,1364,253793.89,255158.24,26,16,17
22,M130922,23,False,0,Ackee_1.jpg,0,a,Ackee_1_16.png,23,correct,a,1443,261108.19,262551.41,26,15,16
23,M130922,24,False,0,Gac_1.jpg,0,w,Gac_1_15.png,24,correct,w,1051,268522.47,269574.17,26,14,15
24,M130922,25,False,0,Ackee_1.jpg,0,s,Ackee_1_17.png,25,correct,s,2009,275516.55,277526.48,26,15,17
25,M130922,26,False,0,Gac_1.jpg,0,a,Gac_1_16.png,26,correct,a,1946,283501.21,285447.25,26,14,16
26,M130922,27,False,0,ZF_1.jpg,0,a,ZF_1_16.png,27,correct,a,1649,291395.81,293045.56,26,14,16
27,M130922,28,False,0,Tamanid_1.jpg,0,w,Tamanid_1_15.png,28,correct,w,2263,298990.22,301254.17,26,17,15
28,M130922,29,False,0,Finger_1.jpg,0,w,Finger_1_15.png,29,correct,w,2060,307224.99,309285.51,26,17,15
29,M130922,30,False,0,Sapota_1.jpg,0,q,Sapota_1_14.png,30,correct,q,1417,315229.63,316646.76,26,16,14
30,M130922,31,False,0,Noni_1.jpg,0,s,Noni_1_17.png,31,correct,s,2121,322604.02,324725.75,26,15,17
31,M130922,32,False,0,Ake_1.jpg,0,q,Ake_1_14.png,32,correct,q,1786,330668.66,332455.27,26,16,14
0,I270722,1,False,0,Gac_1.jpg,0,s,Gac_1_17.png,1,correct,s,1646,220872.79,222519.56,8,17,17
1,I270722,2,False,0,ZF_1.jpg,0,s,ZF_1_17.png,2,correct,s,1337,228477.27,229814.89,8,17,17
2,I270722,3,False,0,Ackee_1.jpg,0,q,Ackee_1_14.png,3,correct,q,1819,235771.55,237590.72,8,14,14
3,I270722,4,False,0,Noni_1.jpg,0,q,Noni_1_14.png,4,correct,q,967,243536.03,244503.23,8,14,14
4,I270722,5,False,0,Sapota_1.jpg,0,w,Sapota_1_15.png,5,correct,w,1094,250480.1,251574.63,8,15,15
5,I270722,6,False,0,Ake_1.jpg,0,w,Ake_1_15.png,6,correct,w,1012,257554.22,258566.8,8,15,15
6,I270722,7,False,0,Tamanid_1.jpg,0,a,Tamanid_1_16.png,7,correct,a,2038,264528.27,266566.6,8,16,16
7,I270722,8,False,0,Finger_1.jpg,0,a,Finger_1_16.png,8,correct,a,1387,272522.99,273910.34,8,16,16
8,I270722,9,False,0,Ake_1.jpg,0,a,Ake_1_16.png,9,correct,a,2085,279857.28,281942.58,8,15,16
9,I270722,10,False,0,Tamanid_1.jpg,0,s,Tamanid_1_17.png,10,correct,s,1488,287911.92,289400.04,8,16,17
10,I270722,11,False,0,Ackee_1.jpg,0,w,Ackee_1_15.png,11,correct,w,836,295346.29,296182.54,8,14,15
11,I270722,12,False,0,Sapota_1.jpg,0,a,Sapota_1_16.png,12,correct,a,2005,302130.21,304135.69,8,15,16
12,I270722,13,False,0,Gac_1.jpg,0,q,Gac_1_14.png,13,correct,q,797,310104.87,310902.48,8,17,14
13,I270722,14,False,0,ZF_1.jpg,0,q,ZF_1_14.png,14,correct,q,1189,316848.82,318038.21,8,17,14
14,I270722,15,False,0,Noni_1.jpg,0,w,Noni_1_15.png,15,correct,w,1177,324013.0,325190.73,8,14,15
15,I270722,16,False,0,Finger_1.jpg,0,s,Finger_1_17.png,16,incorrect,q,1975,331167.19,333142.81,8,16,17
16,I270722,17,False,0,ZF_1.jpg,0,w,ZF_1_15.png,17,correct,w,1010,339091.79,340102.69,8,17,15
17,I270722,18,False,0,Tamanid_1.jpg,0,q,Tamanid_1_14.png,18,correct,q,1097,346045.88,347143.03,8,16,14
18,I270722,19,False,0,Finger_1.jpg,0,q,Finger_1_14.png,19,correct,q,1429,353089.96,354519.36,8,16,14
19,I270722,20,False,0,Sapota_1.jpg,0,s,Sapota_1_17.png,20,correct,s,1270,360464.26,361734.4,8,15,17
20,I270722,21,False,0,Noni_1.jpg,0,a,Noni_1_16.png,21,correct,a,1289,367678.45,368967.96,8,14,16
21,I270722,22,False,0,Ake_1.jpg,0,s,Ake_1_17.png,22,correct,s,1112,374942.69,376055.6,8,15,17
22,I270722,23,False,0,Ackee_1.jpg,0,a,Ackee_1_16.png,23,correct,a,1328,382006.87,383335.33,8,14,16
23,I270722,24,False,0,Gac_1.jpg,0,w,Gac_1_15.png,24,correct,w,1077,389281.11,390358.88,8,17,15
24,I270722,25,False,0,Ackee_1.jpg,0,s,Ackee_1_17.png,25,correct,s,1654,396305.2,397959.79,8,14,17
25,I270722,26,False,0,Gac_1.jpg,0,a,Gac_1_16.png,26,correct,a,2161,403909.64,406071.41,8,17,16
26,I270722,27,False,0,ZF_1.jpg,0,a,ZF_1_16.png,27,correct,a,927,412024.32,412951.39,8,17,16
27,I270722,28,False,0,Tamanid_1.jpg,0,w,Tamanid_1_15.png,28,correct,w,1557,418898.35,420455.58,8,16,15
28,I270722,29,False,0,Finger_1.jpg,0,w,Finger_1_15.png,29,correct,w,735,426422.7,427158.51,8,16,15
29,I270722,30,False,0,Sapota_1.jpg,0,q,Sapota_1_14.png,30,correct,q,880,433126.62,434006.76,8,15,14
30,I270722,31,False,0,Noni_1.jpg,0,s,Noni_1_17.png,31,correct,s,1031,439950.66,440982.59,8,14,17
31,I270722,32,False,0,Ake_1.jpg,0,q,Ake_1_14.png,32,correct,q,985,446924.66,447910.31,8,15,14
0,M010822,1,False,0,Gac_1.jpg,0,s,Gac_1_17.png,1,correct,s,3197,99244.47,102441.84,20,15,17
1,M010822,2,False,0,ZF_1.jpg,0,s,ZF_1_17.png,2,correct,s,1651,108389.82,110041.5,20,15,17
2,M010822,3,False,0,Ackee_1.jpg,0,q,Ackee_1_14.png,3,incorrect,a,1529,115984.28,117514.02,20,16,14
3,M010822,4,False,0,Noni_1.jpg,0,q,Noni_1_14.png,4,correct,q,1729,123448.57,125178.52,20,16,14
4,M010822,5,False,0,Sapota_1.jpg,0,w,Sapota_1_15.png,5,correct,w,1219,131143.12,132362.92,20,17,15
5,M010822,6,False,0,Ake_1.jpg,0,w,Ake_1_15.png,6,correct,w,1047,138307.23,139354.35,20,17,15
6,M010822,7,False,0,Tamanid_1.jpg,0,a,Tamanid_1_16.png,7,incorrect,q,1311,145291.33,146602.94,20,14,16
7,M010822,8,False,0,Finger_1.jpg,0,a,Finger_1_16.png,8,correct,a,3154,152535.59,155689.79,20,14,16
8,M010822,9,False,0,Ake_1.jpg,0,a,Ake_1_16.png,9,correct,a,1629,161660.87,163290.15,20,17,16
9,M010822,10,False,0,Tamanid_1.jpg,0,s,Tamanid_1_17.png,10,correct,s,1440,169225.27,170665.4,20,14,17
10,M010822,11,False,0,Ackee_1.jpg,0,w,Ackee_1_15.png,11,correct,w,2082,176599.64,178682.56,20,16,15
11,M010822,12,False,0,Sapota_1.jpg,0,a,Sapota_1_16.png,12,correct,a,1828,184614.32,186443.19,20,17,16
12,M010822,13,False,0,Gac_1.jpg,0,q,Gac_1_14.png,13,correct,q,1989,192388.84,194378.73,20,15,14
13,M010822,14,False,0,ZF_1.jpg,0,q,ZF_1_14.png,14,correct,q,999,200323.49,201322.61,20,15,14
14,M010822,15,False,0,Noni_1.jpg,0,w,Noni_1_15.png,15,correct,w,2000,207257.52,209257.84,20,16,15
15,M010822,16,False,0,Finger_1.jpg,0,s,Finger_1_17.png,16,correct,s,1345,215192.16,216537.77,20,14,17
16,M010822,17,False,0,ZF_1.jpg,0,w,ZF_1_15.png,17,correct,w,1469,222476.37,223946.22,20,15,15
17,M010822,18,False,0,Tamanid_1.jpg,0,q,Tamanid_1_14.png,18,correct,q,2772,229910.68,232683.0,20,14,14
18,M010822,19,False,0,Finger_1.jpg,0,q,Finger_1_14.png,19,correct,q,1112,238625.76,239738.62,20,14,14
19,M010822,20,False,0,Sapota_1.jpg,0,s,Sapota_1_17.png,20,correct,s,1770,245679.89,247450.69,20,17,17
20,M010822,21,False,0,Noni_1.jpg,0,a,Noni_1_16.png,21,correct,a,2403,253414.45,255817.65,20,16,16
21,M010822,22,False,0,Ake_1.jpg,0,s,Ake_1_17.png,22,correct,s,3018,261759.31,264777.88,20,17,17
22,M010822,23,False,0,Ackee_1.jpg,0,a,Ackee_1_16.png,23,correct,a,1359,270714.54,272074.32,20,16,16
23,M010822,24,False,0,Gac_1.jpg,0,w,Gac_1_15.png,24,correct,w,1586,278008.82,279595.13,20,15,15
24,M010822,25,False,0,Ackee_1.jpg,0,s,Ackee_1_17.png,25,correct,s,1684,285543.15,287227.27,20,16,17
25,M010822,26,False,0,Gac_1.jpg,0,a,Gac_1_16.png,26,correct,a,1087,293177.6,294265.6,20,15,16
26,M010822,27,False,0,ZF_1.jpg,0,a,ZF_1_16.png,27,correct,a,1345,300201.7,301546.87,20,15,16
27,M010822,28,False,0,Tamanid_1.jpg,0,w,Tamanid_1_15.png,28,correct,w,1655,307475.94,309131.11,20,14,15
28,M010822,29,False,0,Finger_1.jpg,0,w,Finger_1_15.png,29,correct,w,2140,315070.41,317210.73,20,14,15
29,M010822,30,False,0,Sapota_1.jpg,0,q,Sapota_1_14.png,30,correct,q,1713,323145.14,324858.77,20,17,14
30,M010822,31,False,0,Noni_1.jpg,0,s,Noni_1_17.png,31,correct,s,2212,330789.56,333002.18,20,16,17
31,M010822,32,False,0,Ake_1.jpg,0,q,Ake_1_14.png,32,correct,q,1059,338934.37,339993.46,20,17,14
0,D140922,1,False,0,Gac_1.jpg,0,s,Gac_1_17.png,1,correct,s,2768,280894.05,283662.23,31,16,17
1,D140922,2,False,0,ZF_1.jpg,0,s,ZF_1_17.png,2,correct,s,3636,289609.13,293245.86,31,16,17
2,D140922,3,False,0,Ackee_1.jpg,0,q,Ackee_1_14.png,3,correct,q,2147,299194.72,301341.93,31,17,14
3,D140922,4,False,0,Noni_1.jpg,0,q,Noni_1_14.png,4,correct,q,4166,307319.46,311486.07,31,17,14
4,D140922,5,False,0,Sapota_1.jpg,0,w,Sapota_1_15.png,5,correct,w,2105,317445.36,319550.62,31,14,15
5,D140922,6,False,0,Ake_1.jpg,0,w,Ake_1_15.png,6,correct,w,1522,325500.05,327022.7,31,14,15
6,D140922,7,False,0,Tamanid_1.jpg,0,a,Tamanid_1_16.png,7,correct,a,3973,332984.4,336957.61,31,15,16
7,D140922,8,False,0,Finger_1.jpg,0,a,Finger_1_16.png,8,correct,a,2464,342910.18,345375.01,31,15,16
8,D140922,9,False,0,Ake_1.jpg,0,a,Ake_1_16.png,9,incorrect,MISSING_DATA,-384083,351315.03,-32768.0,31,14,16
9,D140922,10,False,0,Tamanid_1.jpg,0,s,Tamanid_1_17.png,10,incorrect,MISSING_DATA,-395079,362311.49,-32768.0,31,15,17
10,D140922,11,False,0,Ackee_1.jpg,0,w,Ackee_1_15.png,11,correct,w,4129,373307.86,377437.66,31,17,15
11,D140922,12,False,0,Sapota_1.jpg,0,a,Sapota_1_16.png,12,correct,a,1958,383383.72,385342.18,31,14,16
12,D140922,13,False,0,Gac_1.jpg,0,q,Gac_1_14.png,13,correct,q,966,391288.31,392254.59,31,16,14
13,D140922,14,False,0,ZF_1.jpg,0,q,ZF_1_14.png,14,incorrect,MISSING_DATA,-431000,398232.34,-32768.0,31,16,14
14,D140922,15,False,0,Noni_1.jpg,0,w,Noni_1_15.png,15,correct,w,1472,409228.8,410701.44,31,17,15
15,D140922,16,False,0,Finger_1.jpg,0,s,Finger_1_17.png,16,incorrect,MISSING_DATA,-449441,416673.12,-32768.0,31,15,17
16,D140922,17,False,0,ZF_1.jpg,0,w,ZF_1_15.png,17,incorrect,MISSING_DATA,-460427,427659.52,-32768.0,31,16,15
17,D140922,18,False,0,Tamanid_1.jpg,0,q,Tamanid_1_14.png,18,incorrect,MISSING_DATA,-471443,438675.89,-32768.0,31,15,14
18,D140922,19,False,0,Finger_1.jpg,0,q,Finger_1_14.png,19,correct,q,1622,449702.35,451325.25,31,15,14
19,D140922,20,False,0,Sapota_1.jpg,0,s,Sapota_1_17.png,20,correct,s,2029,457296.74,459326.34,31,14,17
20,D140922,21,False,0,Noni_1.jpg,0,a,Noni_1_16.png,21,correct,a,1623,465271.37,466894.81,31,17,16
21,D140922,22,False,0,Ake_1.jpg,0,s,Ake_1_17.png,22,correct,s,1708,472865.77,474574.5,31,14,17
22,D140922,23,False,0,Ackee_1.jpg,0,a,Ackee_1_16.png,23,correct,a,1813,480520.23,482334.21,31,17,16
23,D140922,24,False,0,Gac_1.jpg,0,w,Gac_1_15.png,24,correct,w,1725,488304.8,490030.66,31,16,15
24,D140922,25,False,0,Ackee_1.jpg,0,s,Ackee_1_17.png,25,correct,s,1214,495999.31,497213.79,31,17,17
25,D140922,26,False,0,Gac_1.jpg,0,a,Gac_1_16.png,26,correct,a,1011,503193.44,504205.34,31,16,16
26,D140922,27,False,0,ZF_1.jpg,0,a,ZF_1_16.png,27,incorrect,q,1882,510147.57,512030.07,31,16,16
27,D140922,28,False,0,Tamanid_1.jpg,0,w,Tamanid_1_15.png,28,correct,w,1039,517982.1,519021.71,31,15,15
28,D140922,29,False,0,Finger_1.jpg,0,w,Finger_1_15.png,29,correct,w,2381,524976.17,527358.02,31,15,15
29,D140922,30,False,0,Sapota_1.jpg,0,q,Sapota_1_14.png,30,correct,q,1386,533330.99,534717.31,31,14,14
30,D140922,31,False,0,Noni_1.jpg,0,s,Noni_1_17.png,31,correct,s,1971,540665.27,542636.9,31,17,17
31,D140922,32,False,0,Ake_1.jpg,0,q,Ake_1_14.png,32,correct,q,2074,548579.91,550654.67,31,14,14
0,Da280722,1,False,0,Gac_1.jpg,0,s,Gac_1_17.png,1,correct,s,1672,122439.53,124112.21,11,14,17
1,Da280722,2,False,0,ZF_1.jpg,0,s,ZF_1_17.png,2,correct,s,2028,130083.95,132111.96,11,14,17
2,Da280722,3,False,0,Ackee_1.jpg,0,q,Ackee_1_14.png,3,correct,q,1818,138068.6,139886.68,11,15,14
3,Da280722,4,False,0,Noni_1.jpg,0,q,Noni_1_14.png,4,correct,q,795,145843.16,146638.72,11,15,14
4,Da280722,5,False,0,Sapota_1.jpg,0,w,Sapota_1_15.png,5,correct,w,2155,152597.13,154752.23,11,16,15
5,Da280722,6,False,0,Ake_1.jpg,0,w,Ake_1_15.png,6,correct,w,1507,160731.84,162239.29,11,16,15
6,Da280722,7,False,0,Tamanid_1.jpg,0,a,Tamanid_1_16.png,7,correct,a,1876,168186.24,170063.01,11,17,16
7,Da280722,8,False,0,Finger_1.jpg,0,a,Finger_1_16.png,8,correct,a,3353,176020.81,179374.45,11,17,16
8,Da280722,9,False,0,Ake_1.jpg,0,a,Ake_1_16.png,9,correct,a,2477,185346.2,187823.88,11,16,16
9,Da280722,10,False,0,Tamanid_1.jpg,0,s,Tamanid_1_17.png,10,correct,s,1011,193771.17,194782.96,11,17,17
10,Da280722,11,False,0,Ackee_1.jpg,0,w,Ackee_1_15.png,11,correct,w,1082,200725.22,201807.49,11,15,15
11,Da280722,12,False,0,Sapota_1.jpg,0,a,Sapota_1_16.png,12,correct,a,955,207779.26,208734.54,11,16,16
12,Da280722,13,False,0,Gac_1.jpg,0,q,Gac_1_14.png,13,correct,q,1215,214703.31,215918.85,11,14,14
13,Da280722,14,False,0,ZF_1.jpg,0,q,ZF_1_14.png,14,correct,q,996,221867.56,222863.57,11,14,14
14,Da280722,15,False,0,Noni_1.jpg,0,w,Noni_1_15.png,15,incorrect,q,3471,228831.61,232302.78,11,15,15
15,Da280722,16,False,0,Finger_1.jpg,0,s,Finger_1_17.png,16,correct,s,1453,238257.06,239710.7,11,17,17
16,Da280722,17,False,0,ZF_1.jpg,0,w,ZF_1_15.png,17,correct,w,1265,245661.4,246927.06,11,14,15
17,Da280722,18,False,0,Tamanid_1.jpg,0,q,Tamanid_1_14.png,18,incorrect,s,4157,252865.59,257022.65,11,17,14
18,Da280722,19,False,0,Finger_1.jpg,0,q,Finger_1_14.png,19,correct,q,2244,262971.49,265215.9,11,17,14
19,Da280722,20,False,0,Sapota_1.jpg,0,s,Sapota_1_17.png,20,correct,s,2544,271166.29,273710.66,11,16,17
20,Da280722,21,False,0,Noni_1.jpg,0,a,Noni_1_16.png,21,correct,a,1106,279661.22,280767.28,11,15,16
21,Da280722,22,False,0,Ake_1.jpg,0,s,Ake_1_17.png,22,correct,s,755,286715.35,287470.59,11,16,17
22,Da280722,23,False,0,Ackee_1.jpg,0,a,Ackee_1_16.png,23,correct,a,1200,293439.28,294639.88,11,15,16
23,Da280722,24,False,0,Gac_1.jpg,0,w,Gac_1_15.png,24,correct,w,973,300593.44,301566.92,11,14,15
24,Da280722,25,False,0,Ackee_1.jpg,0,s,Ackee_1_17.png,25,correct,s,753,307517.49,308271.35,11,15,17
25,Da280722,26,False,0,Gac_1.jpg,0,a,Gac_1_16.png,26,correct,a,2620,314211.41,316831.56,11,14,16
26,Da280722,27,False,0,ZF_1.jpg,0,a,ZF_1_16.png,27,correct,a,1799,322776.38,324575.69,11,14,16
27,Da280722,28,False,0,Tamanid_1.jpg,0,w,Tamanid_1_15.png,28,correct,w,2231,330520.89,332752.5,11,17,15
28,Da280722,29,False,0,Finger_1.jpg,0,w,Finger_1_15.png,29,correct,w,2038,338695.65,340734.64,11,17,15
29,Da280722,30,False,0,Sapota_1.jpg,0,q,Sapota_1_14.png,30,correct,q,2290,346700.37,348990.66,11,16,14
30,Da280722,31,False,0,Noni_1.jpg,0,s,Noni_1_17.png,31,correct,s,1065,354935.17,356000.4,11,15,17
31,Da280722,32,False,0,Ake_1.jpg,0,q,Ake_1_14.png,32,correct,q,2273,361949.22,364222.58,11,16,14
0,A1010822,1,False,0,Gac_1.jpg,0,s,Gac_1_17.png,1,incorrect,MISSING_DATA,-222755,189987.37,-32768.0,17,17,17
1,A1010822,2,False,0,ZF_1.jpg,0,s,ZF_1_17.png,2,correct,s,2150,200993.78,203144.35,17,17,17
2,A1010822,3,False,0,Ackee_1.jpg,0,q,Ackee_1_14.png,3,correct,q,3193,209088.58,212282.17,17,14,14
3,A1010822,4,False,0,Noni_1.jpg,0,q,Noni_1_14.png,4,incorrect,a,3328,218233.87,221562.0,17,14,14
4,A1010822,5,False,0,Sapota_1.jpg,0,w,Sapota_1_15.png,5,correct,w,2853,227539.34,230393.27,17,15,15
5,A1010822,6,False,0,Ake_1.jpg,0,w,Ake_1_15.png,6,incorrect,MISSING_DATA,-269152,236384.54,-32768.0,17,15,15
6,A1010822,7,False,0,Tamanid_1.jpg,0,a,Tamanid_1_16.png,7,incorrect,q,1763,247380.89,249144.49,17,16,16
7,A1010822,8,False,0,Finger_1.jpg,0,a,Finger_1_16.png,8,correct,a,2200,255105.45,257305.65,17,16,16
8,A1010822,9,False,0,Ake_1.jpg,0,a,Ake_1_16.png,9,incorrect,s,4728,263280.23,268009.09,17,15,16
9,A1010822,10,False,0,Tamanid_1.jpg,0,s,Tamanid_1_17.png,10,incorrect,MISSING_DATA,-306744,273976.43,-32768.0,17,16,17
10,A1010822,11,False,0,Ackee_1.jpg,0,w,Ackee_1_15.png,11,correct,w,1271,284992.89,286264.54,17,14,15
11,A1010822,12,False,0,Sapota_1.jpg,0,a,Sapota_1_16.png,12,correct,a,2527,292217.1,294744.46,17,15,16
12,A1010822,13,False,0,Gac_1.jpg,0,q,Gac_1_14.png,13,correct,q,1220,300692.03,301912.2,17,17,14
13,A1010822,14,False,0,ZF_1.jpg,0,q,ZF_1_14.png,14,correct,q,809,307856.19,308665.77,17,17,14
14,A1010822,15,False,0,Noni_1.jpg,0,w,Noni_1_15.png,15,correct,w,1062,314610.16,315672.58,17,14,15
15,A1010822,16,False,0,Finger_1.jpg,0,s,Finger_1_17.png,16,correct,s,1570,321654.29,323224.6,17,16,17
16,A1010822,17,False,0,ZF_1.jpg,0,w,ZF_1_15.png,17,correct,w,1278,329178.65,330457.55,17,17,15
17,A1010822,18,False,0,Tamanid_1.jpg,0,q,Tamanid_1_14.png,18,correct,q,1573,336402.89,337976.8,17,16,14
18,A1010822,19,False,0,Finger_1.jpg,0,q,Finger_1_14.png,19,correct,q,1419,343917.28,345337.14,17,16,14
19,A1010822,20,False,0,Sapota_1.jpg,0,s,Sapota_1_17.png,20,correct,s,1612,351291.54,352904.36,17,15,17
20,A1010822,21,False,0,Noni_1.jpg,0,a,Noni_1_16.png,21,correct,a,1971,358886.07,360857.96,17,14,16
21,A1010822,22,False,0,Ake_1.jpg,0,s,Ake_1_17.png,22,incorrect,w,2621,366810.71,369432.21,17,15,17
22,A1010822,23,False,0,Ackee_1.jpg,0,a,Ackee_1_16.png,23,correct,a,2938,375375.6,378313.81,17,14,16
23,A1010822,24,False,0,Gac_1.jpg,0,w,Gac_1_15.png,24,incorrect,MISSING_DATA,-417038,384270.8,-32768.0,17,17,15
24,A1010822,25,False,0,Ackee_1.jpg,0,s,Ackee_1_17.png,25,correct,s,1301,395267.28,396569.03,17,14,17
25,A1010822,26,False,0,Gac_1.jpg,0,a,Gac_1_16.png,26,correct,a,1839,402521.49,404360.58,17,17,16
26,A1010822,27,False,0,ZF_1.jpg,0,a,ZF_1_16.png,27,incorrect,s,2534,410306.05,412840.63,17,17,16
27,A1010822,28,False,0,Tamanid_1.jpg,0,w,Tamanid_1_15.png,28,incorrect,MISSING_DATA,-451559,418791.01,-32768.0,17,16,15
28,A1010822,29,False,0,Finger_1.jpg,0,w,Finger_1_15.png,29,correct,w,1540,429797.44,431337.71,17,16,15
29,A1010822,30,False,0,Sapota_1.jpg,0,q,Sapota_1_14.png,30,correct,q,1034,437311.83,438346.21,17,15,14
30,A1010822,31,False,0,Noni_1.jpg,0,s,Noni_1_17.png,31,correct,s,1229,444315.89,445545.02,17,14,17
31,A1010822,32,False,0,Ake_1.jpg,0,q,Ake_1_14.png,32,incorrect,w,3869,451500.03,455369.47,17,15,14
0,A130922,1,False,0,Gac_1.jpg,0,s,Gac_1_17.png,1,correct,s,1440,75734.22,77174.56,25,17,17
1,A130922,2,False,0,ZF_1.jpg,0,s,ZF_1_17.png,2,correct,s,1549,83128.54,84678.48,25,17,17
2,A130922,3,False,0,Ackee_1.jpg,0,q,Ackee_1_14.png,3,correct,q,1615,90632.93,92248.28,25,14,14
3,A130922,4,False,0,Noni_1.jpg,0,q,Noni_1_14.png,4,correct,q,1121,98197.32,99319.1,25,14,14
4,A130922,5,False,0,Sapota_1.jpg,0,w,Sapota_1_15.png,5,correct,w,2690,105301.44,107991.47,25,15,15
5,A130922,6,False,0,Ake_1.jpg,0,w,Ake_1_15.png,6,correct,w,1293,113946.55,115239.6,25,15,15
6,A130922,7,False,0,Tamanid_1.jpg,0,a,Tamanid_1_16.png,7,correct,a,2704,121190.75,123895.6,25,16,16
7,A130922,8,False,0,Finger_1.jpg,0,a,Finger_1_16.png,8,correct,a,3809,129845.77,133655.67,25,16,16
8,A130922,9,False,0,Ake_1.jpg,0,a,Ake_1_16.png,9,correct,a,1349,139601.47,140950.87,25,15,16
9,A130922,10,False,0,Tamanid_1.jpg,0,s,Tamanid_1_17.png,10,incorrect,a,2280,146925.7,149206.23,25,16,17
10,A130922,11,False,0,Ackee_1.jpg,0,w,Ackee_1_15.png,11,correct,w,4766,155160.52,159926.54,25,14,15
11,A130922,12,False,0,Sapota_1.jpg,0,a,Sapota_1_16.png,12,correct,a,962,165876.79,166839.43,25,15,16
12,A130922,13,False,0,Gac_1.jpg,0,q,Gac_1_14.png,13,correct,q,1133,172810.85,173943.96,25,17,14
13,A130922,14,False,0,ZF_1.jpg,0,q,ZF_1_14.png,14,correct,q,768,179894.98,180662.99,25,17,14
14,A130922,15,False,0,Noni_1.jpg,0,w,Noni_1_15.png,15,correct,w,981,186608.85,187590.52,25,14,15
15,A130922,16,False,0,Finger_1.jpg,0,s,Finger_1_17.png,16,correct,s,1824,193542.9,195367.5,25,16,17
16,A130922,17,False,0,ZF_1.jpg,0,w,ZF_1_15.png,17,correct,w,1809,201317.4,203127.33,25,17,15
17,A130922,18,False,0,Tamanid_1.jpg,0,q,Tamanid_1_14.png,18,correct,q,1245,209081.99,210327.61,25,16,14
18,A130922,19,False,0,Finger_1.jpg,0,q,Finger_1_14.png,19,correct,q,1283,216276.14,217559.57,25,16,14
19,A130922,20,False,0,Sapota_1.jpg,0,s,Sapota_1_17.png,20,correct,s,1738,223500.37,225238.86,25,15,17
20,A130922,21,False,0,Noni_1.jpg,0,a,Noni_1_16.png,21,correct,a,1298,231204.83,232503.4,25,14,16
21,A130922,22,False,0,Ake_1.jpg,0,s,Ake_1_17.png,22,correct,s,1061,238449.07,239510.48,25,15,17
22,A130922,23,False,0,Ackee_1.jpg,0,a,Ackee_1_16.png,23,correct,a,1322,245453.1,246775.79,25,14,16
23,A130922,24,False,0,Gac_1.jpg,0,w,Gac_1_15.png,24,correct,w,1289,252717.38,254006.43,25,17,15
24,A130922,25,False,0,Ackee_1.jpg,0,s,Ackee_1_17.png,25,correct,s,1127,259951.58,261079.02,25,14,17
25,A130922,26,False,0,Gac_1.jpg,0,a,Gac_1_16.png,26,correct,a,859,267035.76,267894.84,25,17,16
26,A130922,27,False,0,ZF_1.jpg,0,a,ZF_1_16.png,27,correct,a,1206,273839.7,275046.49,25,17,16
27,A130922,28,False,0,Tamanid_1.jpg,0,w,Tamanid_1_15.png,28,correct,w,1425,281013.92,282439.83,25,16,15
28,A130922,29,False,0,Finger_1.jpg,0,w,Finger_1_15.png,29,correct,w,940,288378.16,289318.94,25,16,15
29,A130922,30,False,0,Sapota_1.jpg,0,q,Sapota_1_14.png,30,correct,q,1197,295272.17,296470.05,25,15,14
30,A130922,31,False,0,Noni_1.jpg,0,s,Noni_1_17.png,31,correct,s,2492,302426.3,304919.06,25,14,17
31,A130922,32,False,0,Ake_1.jpg,0,q,Ake_1_14.png,32,correct,q,1577,310861.23,312438.69,25,15,14
0,P2260722,1,False,0,Gac_1.jpg,0,s,Gac_1_17.png,1,correct,s,3240,117568.02,120808.3,5,15,17
1,P2260722,2,False,0,ZF_1.jpg,0,s,ZF_1_17.png,2,correct,s,1836,126763.38,128599.54,5,15,17
2,P2260722,3,False,0,Ackee_1.jpg,0,q,Ackee_1_14.png,3,correct,q,1667,134547.94,136215.64,5,16,14
3,P2260722,4,False,0,Noni_1.jpg,0,q,Noni_1_14.png,4,correct,q,2234,142172.39,144406.65,5,16,14
4,P2260722,5,False,0,Sapota_1.jpg,0,w,Sapota_1_15.png,5,correct,w,1868,150347.13,152216.07,5,17,15
5,P2260722,6,False,0,Ake_1.jpg,0,w,Ake_1_15.png,6,correct,w,1644,158171.68,159816.08,5,17,15
6,P2260722,7,False,0,Tamanid_1.jpg,0,a,Tamanid_1_16.png,7,correct,a,1825,165766.19,167591.49,5,14,16
7,P2260722,8,False,0,Finger_1.jpg,0,a,Finger_1_16.png,8,correct,a,2274,173540.66,175814.78,5,14,16
8,P2260722,9,False,0,Ake_1.jpg,0,a,Ake_1_16.png,9,correct,a,1180,181755.45,182936.1,5,17,16
9,P2260722,10,False,0,Tamanid_1.jpg,0,s,Tamanid_1_17.png,10,correct,s,1502,188889.58,190391.77,5,14,17
10,P2260722,11,False,0,Ackee_1.jpg,0,w,Ackee_1_15.png,11,correct,w,1866,196333.98,198200.15,5,16,15
11,P2260722,12,False,0,Sapota_1.jpg,0,a,Sapota_1_16.png,12,correct,a,1198,204168.5,205366.96,5,17,16
12,P2260722,13,False,0,Gac_1.jpg,0,q,Gac_1_14.png,13,correct,q,1272,211342.7,212614.77,5,15,14
13,P2260722,14,False,0,ZF_1.jpg,0,q,ZF_1_14.png,14,correct,q,1264,218566.95,219831.84,5,15,14
14,P2260722,15,False,0,Noni_1.jpg,0,w,Noni_1_15.png,15,correct,w,1246,225801.13,227047.29,5,16,15
15,P2260722,16,False,0,Finger_1.jpg,0,s,Finger_1_17.png,16,correct,s,1312,233015.34,234328.17,5,14,17
16,P2260722,17,False,0,ZF_1.jpg,0,w,ZF_1_15.png,17,correct,w,1497,240269.59,241767.17,5,15,15
17,P2260722,18,False,0,Tamanid_1.jpg,0,q,Tamanid_1_14.png,18,correct,q,1541,247713.9,249255.64,5,14,14
18,P2260722,19,False,0,Finger_1.jpg,0,q,Finger_1_14.png,19,correct,q,1104,255208.26,256312.34,5,14,14
19,P2260722,20,False,0,Sapota_1.jpg,0,s,Sapota_1_17.png,20,correct,s,3309,262282.43,265592.02,5,17,17
20,P2260722,21,False,0,Noni_1.jpg,0,a,Noni_1_16.png,21,correct,a,1606,271537.78,273143.88,5,16,16
21,P2260722,22,False,0,Ake_1.jpg,0,s,Ake_1_17.png,22,correct,s,1794,279092.18,280887.07,5,17,17
22,P2260722,23,False,0,Ackee_1.jpg,0,a,Ackee_1_16.png,23,correct,a,1679,286856.8,288536.08,5,16,16
23,P2260722,24,False,0,Gac_1.jpg,0,w,Gac_1_15.png,24,correct,w,2198,294481.22,296679.5,5,15,15
24,P2260722,25,False,0,Ackee_1.jpg,0,s,Ackee_1_17.png,25,correct,s,3328,302645.95,305974.57,5,16,17
25,P2260722,26,False,0,Gac_1.jpg,0,a,Gac_1_16.png,26,correct,a,2422,311921.34,314343.47,5,15,16
26,P2260722,27,False,0,ZF_1.jpg,0,a,ZF_1_16.png,27,correct,a,2040,320286.22,322326.91,5,15,16
27,P2260722,28,False,0,Tamanid_1.jpg,0,w,Tamanid_1_15.png,28,correct,w,3774,328280.91,332055.79,5,14,15
28,P2260722,29,False,0,Finger_1.jpg,0,w,Finger_1_15.png,29,correct,w,1114,337996.58,339110.87,5,14,15
29,P2260722,30,False,0,Sapota_1.jpg,0,q,Sapota_1_14.png,30,correct,q,1219,345060.7,346280.54,5,17,14
30,P2260722,31,False,0,Noni_1.jpg,0,s,Noni_1_17.png,31,correct,s,1269,352224.83,353494.58,5,16,17
31,P2260722,32,False,0,Ake_1.jpg,0,q,Ake_1_14.png,32,correct,q,1352,359439.03,360791.03,5,17,14
0,P260722,1,False,0,Gac_1.jpg,0,s,Gac_1_17.png,1,correct,s,1571,81653.79,83225.6,3,14,17
1,P260722,2,False,0,ZF_1.jpg,0,s,ZF_1_17.png,2,correct,s,1390,89178.1,90568.95,3,14,17
2,P260722,3,False,0,Ackee_1.jpg,0,q,Ackee_1_14.png,3,incorrect,a,921,96512.4,97433.42,3,15,14
3,P260722,4,False,0,Noni_1.jpg,0,q,Noni_1_14.png,4,correct,q,952,103376.39,104329.33,3,15,14
4,P260722,5,False,0,Sapota_1.jpg,0,w,Sapota_1_15.png,5,correct,w,1009,110280.46,111289.62,3,16,15
5,P260722,6,False,0,Ake_1.jpg,0,w,Ake_1_15.png,6,correct,w,1019,117244.48,118264.43,3,16,15
6,P260722,7,False,0,Tamanid_1.jpg,0,a,Tamanid_1_16.png,7,correct,a,1191,124208.61,125400.15,3,17,16
7,P260722,8,False,0,Finger_1.jpg,0,a,Finger_1_16.png,8,correct,a,954,131342.73,132297.4,3,17,16
8,P260722,9,False,0,Ake_1.jpg,0,a,Ake_1_16.png,9,correct,a,941,138236.75,139177.81,3,16,16
9,P260722,10,False,0,Tamanid_1.jpg,0,s,Tamanid_1_17.png,10,correct,s,906,145150.84,146057.09,3,17,17
10,P260722,11,False,0,Ackee_1.jpg,0,w,Ackee_1_15.png,11,correct,w,1059,152004.81,153064.38,3,15,15
11,P260722,12,False,0,Sapota_1.jpg,0,a,Sapota_1_16.png,12,correct,a,1111,159008.87,160120.05,3,16,16
12,P260722,13,False,0,Gac_1.jpg,0,q,Gac_1_14.png,13,correct,q,937,166062.98,167000.74,3,14,14
13,P260722,14,False,0,ZF_1.jpg,0,q,ZF_1_14.png,14,correct,q,1106,172967.06,174073.51,3,14,14
14,P260722,15,False,0,Noni_1.jpg,0,w,Noni_1_15.png,15,correct,w,996,180021.15,181017.35,3,15,15
15,P260722,16,False,0,Finger_1.jpg,0,s,Finger_1_17.png,16,correct,s,1534,186955.18,188489.3,3,17,17
16,P260722,17,False,0,ZF_1.jpg,0,w,ZF_1_15.png,17,correct,w,807,194449.57,195256.93,3,14,15
17,P260722,18,False,0,Tamanid_1.jpg,0,q,Tamanid_1_14.png,18,correct,q,1622,201203.47,202825.5,3,17,14
18,P260722,19,False,0,Finger_1.jpg,0,q,Finger_1_14.png,19,correct,q,1449,208767.97,210217.1,3,17,14
19,P260722,20,False,0,Sapota_1.jpg,0,s,Sapota_1_17.png,20,correct,s,1302,216162.21,217465.04,3,16,17
20,P260722,21,False,0,Noni_1.jpg,0,a,Noni_1_16.png,21,correct,a,1530,223406.5,224936.61,3,15,16
21,P260722,22,False,0,Ake_1.jpg,0,s,Ake_1_17.png,22,correct,s,951,230880.8,231832.21,3,16,17
22,P260722,23,False,0,Ackee_1.jpg,0,a,Ackee_1_16.png,23,correct,a,1419,237774.83,239193.89,3,15,16
23,P260722,24,False,0,Gac_1.jpg,0,w,Gac_1_15.png,24,correct,w,918,245139.13,246058.04,3,14,15
24,P260722,25,False,0,Ackee_1.jpg,0,s,Ackee_1_17.png,25,correct,s,1093,252003.13,253096.9,3,15,17
25,P260722,26,False,0,Gac_1.jpg,0,a,Gac_1_16.png,26,correct,a,1138,259047.28,260185.57,3,14,16
26,P260722,27,False,0,ZF_1.jpg,0,a,ZF_1_16.png,27,correct,a,917,266131.46,267048.92,3,14,16
27,P260722,28,False,0,Tamanid_1.jpg,0,w,Tamanid_1_15.png,28,correct,w,1078,272995.41,274073.94,3,17,15
28,P260722,29,False,0,Finger_1.jpg,0,w,Finger_1_15.png,29,correct,w,1268,280019.53,281288.25,3,17,15
29,P260722,30,False,0,Sapota_1.jpg,0,q,Sapota_1_14.png,30,correct,q,776,287263.76,288040.39,3,16,14
30,P260722,31,False,0,Noni_1.jpg,0,s,Noni_1_17.png,31,correct,s,907,293997.62,294905.56,3,15,17
31,P260722,32,False,0,Ake_1.jpg,0,q,Ake_1_14.png,32,correct,q,895,300841.62,301737.25,3,16,14
0,D250722,1,False,0,Gac_1.jpg,0,s,Gac_1_17.png,1,correct,s,1399,84756.62,86156.29,1,17,17
1,D250722,2,False,0,ZF_1.jpg,0,s,ZF_1_17.png,2,correct,s,798,92110.81,92908.87,1,17,17
2,D250722,3,False,0,Ackee_1.jpg,0,q,Ackee_1_14.png,3,correct,q,1678,98844.75,100523.65,1,14,14
3,D250722,4,False,0,Noni_1.jpg,0,q,Noni_1_14.png,4,correct,q,1024,106459.2,107483.93,1,14,14
4,D250722,5,False,0,Sapota_1.jpg,0,w,Sapota_1_15.png,5,correct,w,4045,113423.24,117468.26,1,15,15
5,D250722,6,False,0,Ake_1.jpg,0,w,Ake_1_15.png,6,correct,w,2938,123409.1,126347.64,1,15,15
6,D250722,7,False,0,Tamanid_1.jpg,0,a,Tamanid_1_16.png,7,correct,a,1871,132284.27,134155.32,1,16,16
7,D250722,8,False,0,Finger_1.jpg,0,a,Finger_1_16.png,8,incorrect,MISSING_DATA,-172866,140098.84,-32768.0,1,16,16
8,D250722,9,False,0,Ake_1.jpg,0,a,Ake_1_16.png,9,correct,a,1124,151095.27,152219.31,1,15,16
9,D250722,10,False,0,Tamanid_1.jpg,0,s,Tamanid_1_17.png,10,correct,s,1644,158159.4,159803.63,1,16,17
10,D250722,11,False,0,Ackee_1.jpg,0,w,Ackee_1_15.png,11,correct,w,940,165743.79,166684.6,1,14,15
11,D250722,12,False,0,Sapota_1.jpg,0,a,Sapota_1_16.png,12,correct,a,1928,172627.79,174556.66,1,15,16
12,D250722,13,False,0,Gac_1.jpg,0,q,Gac_1_14.png,13,correct,q,1230,180492.39,181722.99,1,17,14
13,D250722,14,False,0,ZF_1.jpg,0,q,ZF_1_14.png,14,correct,q,2026,187666.58,189692.83,1,17,14
14,D250722,15,False,0,Noni_1.jpg,0,w,Noni_1_15.png,15,incorrect,s,3372,195631.23,199003.26,1,14,15
15,D250722,16,False,0,Finger_1.jpg,0,s,Finger_1_17.png,16,correct,s,1235,204936.65,206172.41,1,16,17
16,D250722,17,False,0,ZF_1.jpg,0,w,ZF_1_15.png,17,correct,w,1900,212110.96,214011.5,1,17,15
17,D250722,18,False,0,Tamanid_1.jpg,0,q,Tamanid_1_14.png,18,correct,q,1304,219955.45,221260.24,1,16,14
18,D250722,19,False,0,Finger_1.jpg,0,q,Finger_1_14.png,19,correct,q,3453,227199.67,230652.86,1,16,14
19,D250722,20,False,0,Sapota_1.jpg,0,s,Sapota_1_17.png,20,correct,s,4818,236585.13,241404.01,1,15,17
20,D250722,21,False,0,Noni_1.jpg,0,a,Noni_1_16.png,21,correct,a,1662,247341.39,249003.81,1,14,16
21,D250722,22,False,0,Ake_1.jpg,0,s,Ake_1_17.png,22,correct,s,4553,254945.88,259499.78,1,15,17
22,D250722,23,False,0,Ackee_1.jpg,0,a,Ackee_1_16.png,23,correct,a,1018,265441.97,266460.68,1,14,16
23,D250722,24,False,0,Gac_1.jpg,0,w,Gac_1_15.png,24,correct,w,2774,272406.0,275180.65,1,17,15
24,D250722,25,False,0,Ackee_1.jpg,0,s,Ackee_1_17.png,25,incorrect,a,2522,281121.23,283644.01,1,14,17
25,D250722,26,False,0,Gac_1.jpg,0,a,Gac_1_16.png,26,correct,a,1786,289586.04,291372.78,1,17,16
26,D250722,27,False,0,ZF_1.jpg,0,a,ZF_1_16.png,27,correct,a,2014,297310.61,299324.72,1,17,16
27,D250722,28,False,0,Tamanid_1.jpg,0,w,Tamanid_1_15.png,28,correct,w,2452,305255.2,307707.87,1,16,15
28,D250722,29,False,0,Finger_1.jpg,0,w,Finger_1_15.png,29,correct,w,2282,313650.09,315933.01,1,16,15
29,D250722,30,False,0,Sapota_1.jpg,0,q,Sapota_1_14.png,30,correct,q,2212,321894.92,324107.84,1,15,14
30,D250722,31,False,0,Noni_1.jpg,0,s,Noni_1_17.png,31,correct,s,1210,330049.65,331260.31,1,14,17
31,D250722,32,False,0,Ake_1.jpg,0,q,Ake_1_14.png,32,correct,q,2786,337193.83,339980.81,1,15,14
0,A290722,1,False,0,Gac_1.jpg,0,s,Gac_1_17.png,1,correct,s,2968,136456.06,139424.81,16,17,17
1,A290722,2,False,0,ZF_1.jpg,0,s,ZF_1_17.png,2,correct,s,1994,145381.31,147375.67,16,17,17
2,A290722,3,False,0,Ackee_1.jpg,0,q,Ackee_1_14.png,3,correct,q,2385,153325.95,155711.23,16,14,14
3,A290722,4,False,0,Noni_1.jpg,0,q,Noni_1_14.png,4,correct,q,1589,161690.82,163280.32,16,14,14
4,A290722,5,False,0,Sapota_1.jpg,0,w,Sapota_1_15.png,5,correct,w,1576,169255.24,170832.19,16,15,15
5,A290722,6,False,0,Ake_1.jpg,0,w,Ake_1_15.png,6,correct,w,1254,176809.6,178064.07,16,15,15
6,A290722,7,False,0,Tamanid_1.jpg,0,a,Tamanid_1_16.png,7,correct,a,1971,184013.85,185985.04,16,16,16
7,A290722,8,False,0,Finger_1.jpg,0,a,Finger_1_16.png,8,correct,a,2380,191938.49,194319.08,16,16,16
8,A290722,9,False,0,Ake_1.jpg,0,a,Ake_1_16.png,9,correct,a,1449,200263.27,201712.6,16,15,16
9,A290722,10,False,0,Tamanid_1.jpg,0,s,Tamanid_1_17.png,10,correct,s,2153,207687.66,209841.03,16,16,17
10,A290722,11,False,0,Ackee_1.jpg,0,w,Ackee_1_15.png,11,correct,w,2058,215812.37,217871.31,16,14,15
11,A290722,12,False,0,Sapota_1.jpg,0,a,Sapota_1_16.png,12,correct,a,1059,223837.09,224896.33,16,15,16
12,A290722,13,False,0,Gac_1.jpg,0,q,Gac_1_14.png,13,correct,q,1138,230861.16,231999.25,16,17,14
13,A290722,14,False,0,ZF_1.jpg,0,q,ZF_1_14.png,14,correct,q,2565,237945.32,240511.16,16,17,14
14,A290722,15,False,0,Noni_1.jpg,0,w,Noni_1_15.png,15,correct,w,1555,246460.26,248016.09,16,14,15
15,A290722,16,False,0,Finger_1.jpg,0,s,Finger_1_17.png,16,correct,s,2388,253964.59,256352.79,16,16,17
16,A290722,17,False,0,ZF_1.jpg,0,w,ZF_1_15.png,17,incorrect,s,1363,262299.48,263663.16,16,17,15
17,A290722,18,False,0,Tamanid_1.jpg,0,q,Tamanid_1_14.png,18,correct,q,1170,269613.75,270783.96,16,16,14
18,A290722,19,False,0,Finger_1.jpg,0,q,Finger_1_14.png,19,correct,q,1241,276757.96,277999.15,16,16,14
19,A290722,20,False,0,Sapota_1.jpg,0,s,Sapota_1_17.png,20,correct,s,1690,283942.1,285632.46,16,15,17
20,A290722,21,False,0,Noni_1.jpg,0,a,Noni_1_16.png,21,correct,a,2030,291586.53,293616.6,16,14,16
21,A290722,22,False,0,Ake_1.jpg,0,s,Ake_1_17.png,22,correct,s,1287,299561.21,300848.8,16,15,17
22,A290722,23,False,0,Ackee_1.jpg,0,a,Ackee_1_16.png,23,correct,a,1669,306795.49,308464.9,16,14,16
23,A290722,24,False,0,Gac_1.jpg,0,w,Gac_1_15.png,24,correct,w,1575,314409.92,315984.95,16,17,15
24,A290722,25,False,0,Ackee_1.jpg,0,s,Ackee_1_17.png,25,incorrect,w,3202,321934.23,325136.96,16,14,17
25,A290722,26,False,0,Gac_1.jpg,0,a,Gac_1_16.png,26,correct,a,2089,331109.61,333199.26,16,17,16
26,A290722,27,False,0,ZF_1.jpg,0,a,ZF_1_16.png,27,correct,a,2087,339144.32,341231.88,16,17,16
27,A290722,28,False,0,Tamanid_1.jpg,0,w,Tamanid_1_15.png,28,correct,w,2501,347179.04,349681.0,16,16,15
28,A290722,29,False,0,Finger_1.jpg,0,w,Finger_1_15.png,29,correct,w,1336,355623.96,356960.48,16,16,15
29,A290722,30,False,0,Sapota_1.jpg,0,q,Sapota_1_14.png,30,correct,q,1332,362908.16,364241.05,16,15,14
30,A290722,31,False,0,Noni_1.jpg,0,s,Noni_1_17.png,31,correct,s,1791,370192.46,371983.78,16,14,17
31,A290722,32,False,0,Ake_1.jpg,0,q,Ake_1_14.png,32,correct,q,1499,377956.92,379456.57,16,15,14
0,L130922,1,False,0,Gac_1.jpg,0,s,Gac_1_17.png,1,correct,s,1520,77677.36,79198.35,28,15,17
1,L130922,2,False,0,ZF_1.jpg,0,s,ZF_1_17.png,2,correct,s,1184,85151.63,86336.1,28,15,17
2,L130922,3,False,0,Ackee_1.jpg,0,q,Ackee_1_14.png,3,correct,q,1478,92295.84,93774.43,28,16,14
3,L130922,4,False,0,Noni_1.jpg,0,q,Noni_1_14.png,4,correct,q,1126,99720.12,100847.02,28,16,14
4,L130922,5,False,0,Sapota_1.jpg,0,w,Sapota_1_15.png,5,correct,w,1547,106804.26,108351.32,28,17,15
5,L130922,6,False,0,Ake_1.jpg,0,w,Ake_1_15.png,6,correct,w,1161,114308.64,115470.52,28,17,15
6,L130922,7,False,0,Tamanid_1.jpg,0,a,Tamanid_1_16.png,7,correct,a,1388,121442.83,122830.84,28,14,16
7,L130922,8,False,0,Finger_1.jpg,0,a,Finger_1_16.png,8,correct,a,1317,128777.06,130094.84,28,14,16
8,L130922,9,False,0,Ake_1.jpg,0,a,Ake_1_16.png,9,correct,a,1109,136041.36,137151.07,28,17,16
9,L130922,10,False,0,Tamanid_1.jpg,0,s,Tamanid_1_17.png,10,correct,s,1229,143105.46,144335.09,28,14,17
10,L130922,11,False,0,Ackee_1.jpg,0,w,Ackee_1_15.png,11,correct,w,1958,150279.61,152238.42,28,16,15
11,L130922,12,False,0,Sapota_1.jpg,0,a,Sapota_1_16.png,12,incorrect,q,1517,158194.2,159712.13,28,17,16
12,L130922,13,False,0,Gac_1.jpg,0,q,Gac_1_14.png,13,correct,q,1364,165658.59,167022.96,28,15,14
13,L130922,14,False,0,ZF_1.jpg,0,q,ZF_1_14.png,14,correct,q,1379,172972.83,174351.94,28,15,14
14,L130922,15,False,0,Noni_1.jpg,0,w,Noni_1_15.png,15,correct,w,1591,180297.11,181888.15,28,16,15
15,L130922,16,False,0,Finger_1.jpg,0,s,Finger_1_17.png,16,correct,s,951,187831.44,188783.07,28,14,17
16,L130922,17,False,0,ZF_1.jpg,0,w,ZF_1_15.png,17,correct,w,857,194725.46,195583.12,28,15,15
17,L130922,18,False,0,Tamanid_1.jpg,0,q,Tamanid_1_14.png,18,correct,q,1221,201529.44,202751.14,28,14,14
18,L130922,19,False,0,Finger_1.jpg,0,q,Finger_1_14.png,19,correct,q,1195,208723.63,209919.58,28,14,14
19,L130922,20,False,0,Sapota_1.jpg,0,s,Sapota_1_17.png,20,incorrect,w,1501,215857.77,217359.73,28,17,17
20,L130922,21,False,0,Noni_1.jpg,0,a,Noni_1_16.png,21,correct,a,1208,223302.17,224510.54,28,16,16
21,L130922,22,False,0,Ake_1.jpg,0,s,Ake_1_17.png,22,correct,s,901,230456.3,231358.29,28,17,17
22,L130922,23,False,0,Ackee_1.jpg,0,a,Ackee_1_16.png,23,correct,a,909,237330.29,238239.62,28,16,16
23,L130922,24,False,0,Gac_1.jpg,0,w,Gac_1_15.png,24,correct,w,1014,244184.29,245198.3,28,15,15
24,L130922,25,False,0,Ackee_1.jpg,0,s,Ackee_1_17.png,25,correct,s,1102,251168.38,252271.11,28,16,17
25,L130922,26,False,0,Gac_1.jpg,0,a,Gac_1_16.png,26,correct,a,1744,258222.46,259967.35,28,15,16
26,L130922,27,False,0,ZF_1.jpg,0,a,ZF_1_16.png,27,incorrect,q,1102,265936.96,267039.34,28,15,16
27,L130922,28,False,0,Tamanid_1.jpg,0,w,Tamanid_1_15.png,28,correct,w,1066,272981.04,274047.28,28,14,15
28,L130922,29,False,0,Finger_1.jpg,0,w,Finger_1_15.png,29,correct,w,1167,280015.18,281182.65,28,14,15
29,L130922,30,False,0,Sapota_1.jpg,0,q,Sapota_1_14.png,30,correct,q,1366,287129.33,288495.37,28,17,14
30,L130922,31,False,0,Noni_1.jpg,0,s,Noni_1_17.png,31,correct,s,1394,294443.53,295838.26,28,16,17
31,L130922,32,False,0,Ake_1.jpg,0,q,Ake_1_14.png,32,correct,q,1629,301777.85,303407.22,28,17,14
0,A280722,1,False,0,Gac_1.jpg,0,s,Gac_1_17.png,1,correct,s,1833,233872.12,235705.39,13,15,17
1,A280722,2,False,0,ZF_1.jpg,0,s,ZF_1_17.png,2,incorrect,w,1728,241656.71,243384.83,13,15,17
2,A280722,3,False,0,Ackee_1.jpg,0,q,Ackee_1_14.png,3,correct,q,921,249361.17,250282.62,13,16,14
3,A280722,4,False,0,Noni_1.jpg,0,q,Noni_1_14.png,4,correct,q,1149,256235.17,257384.74,13,16,14
4,A280722,5,False,0,Sapota_1.jpg,0,w,Sapota_1_15.png,5,correct,w,1838,263339.35,265177.42,13,17,15
5,A280722,6,False,0,Ake_1.jpg,0,w,Ake_1_15.png,6,correct,w,891,271133.9,272025.17,13,17,15
6,A280722,7,False,0,Tamanid_1.jpg,0,a,Tamanid_1_16.png,7,correct,a,4015,277977.89,281993.29,13,14,16
7,A280722,8,False,0,Finger_1.jpg,0,a,Finger_1_16.png,8,correct,a,2529,287943.66,290473.56,13,14,16
8,A280722,9,False,0,Ake_1.jpg,0,a,Ake_1_16.png,9,correct,a,1222,296418.6,297640.68,13,17,16
9,A280722,10,False,0,Tamanid_1.jpg,0,s,Tamanid_1_17.png,10,correct,s,1824,303592.77,305417.57,13,14,17
10,A280722,11,False,0,Ackee_1.jpg,0,w,Ackee_1_15.png,11,correct,w,1166,311387.35,312553.42,13,16,15
11,A280722,12,False,0,Sapota_1.jpg,0,a,Sapota_1_16.png,12,correct,a,2175,318521.55,320696.91,13,17,16
12,A280722,13,False,0,Gac_1.jpg,0,q,Gac_1_14.png,13,correct,q,979,326646.26,327626.22,13,15,14
13,A280722,14,False,0,ZF_1.jpg,0,q,ZF_1_14.png,14,correct,q,766,333580.29,334346.37,13,15,14
14,A280722,15,False,0,Noni_1.jpg,0,w,Noni_1_15.png,15,correct,w,2228,340294.2,342522.5,13,16,15
15,A280722,16,False,0,Finger_1.jpg,0,s,Finger_1_17.png,16,correct,s,2404,348469.02,350873.91,13,14,17
16,A280722,17,False,0,ZF_1.jpg,0,w,ZF_1_15.png,17,correct,w,1568,356823.88,358392.79,13,15,15
17,A280722,18,False,0,Tamanid_1.jpg,0,q,Tamanid_1_14.png,18,correct,q,1742,364348.26,366090.55,13,14,14
18,A280722,19,False,0,Finger_1.jpg,0,q,Finger_1_14.png,19,correct,q,1982,372042.74,374025.01,13,14,14
19,A280722,20,False,0,Sapota_1.jpg,0,s,Sapota_1_17.png,20,correct,s,1307,379967.33,381274.65,13,17,17
20,A280722,21,False,0,Noni_1.jpg,0,a,Noni_1_16.png,21,correct,a,1814,387251.58,389066.02,13,16,16
21,A280722,22,False,0,Ake_1.jpg,0,s,Ake_1_17.png,22,correct,s,903,395026.11,395929.83,13,17,17
22,A280722,23,False,0,Ackee_1.jpg,0,a,Ackee_1_16.png,23,incorrect,q,1488,401880.1,403368.84,13,16,16
23,A280722,24,False,0,Gac_1.jpg,0,w,Gac_1_15.png,24,correct,w,1111,409314.53,410425.64,13,15,15
24,A280722,25,False,0,Ackee_1.jpg,0,s,Ackee_1_17.png,25,correct,s,1673,416368.61,418042.18,13,16,17
25,A280722,26,False,0,Gac_1.jpg,0,a,Gac_1_16.png,26,correct,a,1282,424023.07,425305.07,13,15,16
26,A280722,27,False,0,ZF_1.jpg,0,a,ZF_1_16.png,27,correct,a,2459,431247.25,433706.35,13,15,16
27,A280722,28,False,0,Tamanid_1.jpg,0,w,Tamanid_1_15.png,28,correct,w,1604,439652.13,441257.12,13,14,15
28,A280722,29,False,0,Finger_1.jpg,0,w,Finger_1_15.png,29,correct,w,1229,447196.59,448425.74,13,14,15
29,A280722,30,False,0,Sapota_1.jpg,0,q,Sapota_1_14.png,30,correct,q,1943,454370.75,456313.83,13,17,14
30,A280722,31,False,0,Noni_1.jpg,0,s,Noni_1_17.png,31,correct,s,2193,462265.33,464458.54,13,16,17
31,A280722,32,False,0,Ake_1.jpg,0,q,Ake_1_14.png,32,correct,q,1663,470410.13,472074.09,13,17,14
0,M270722,1,False,0,Gac_1.jpg,0,s,Gac_1_17.png,1,correct,s,2106,85896.63,88003.07,6,16,17
1,M270722,2,False,0,ZF_1.jpg,0,s,ZF_1_17.png,2,correct,s,1018,93961.28,94980.15,6,16,17
2,M270722,3,False,0,Ackee_1.jpg,0,q,Ackee_1_14.png,3,correct,q,3358,100965.36,104323.63,6,17,14
3,M270722,4,False,0,Noni_1.jpg,0,q,Noni_1_14.png,4,correct,q,2122,110280.8,112403.73,6,17,14
4,M270722,5,False,0,Sapota_1.jpg,0,w,Sapota_1_15.png,5,correct,w,1442,118385.57,119828.13,6,14,15
5,M270722,6,False,0,Ake_1.jpg,0,w,Ake_1_15.png,6,correct,w,1878,125789.85,127668.34,6,14,15
6,M270722,7,False,0,Tamanid_1.jpg,0,a,Tamanid_1_16.png,7,correct,a,1500,133624.46,135124.8,6,15,16
7,M270722,8,False,0,Finger_1.jpg,0,a,Finger_1_16.png,8,incorrect,w,3155,141088.82,144244.52,6,15,16
8,M270722,9,False,0,Ake_1.jpg,0,a,Ake_1_16.png,9,correct,a,1288,150204.17,151492.47,6,14,16
9,M270722,10,False,0,Tamanid_1.jpg,0,s,Tamanid_1_17.png,10,correct,s,1106,157458.41,158564.54,6,15,17
10,M270722,11,False,0,Ackee_1.jpg,0,w,Ackee_1_15.png,11,correct,w,2046,164532.47,166579.31,6,17,15
11,M270722,12,False,0,Sapota_1.jpg,0,a,Sapota_1_16.png,12,correct,a,1126,172557.15,173683.64,6,14,16
12,M270722,13,False,0,Gac_1.jpg,0,q,Gac_1_14.png,13,correct,q,1092,179631.3,180723.98,6,16,14
13,M270722,14,False,0,ZF_1.jpg,0,q,ZF_1_14.png,14,correct,q,1095,186685.42,187780.86,6,16,14
14,M270722,15,False,0,Noni_1.jpg,0,w,Noni_1_15.png,15,correct,w,2721,193729.5,196451.23,6,17,15
15,M270722,16,False,0,Finger_1.jpg,0,s,Finger_1_17.png,16,incorrect,w,3897,202394.58,206292.07,6,15,17
16,M270722,17,False,0,ZF_1.jpg,0,w,ZF_1_15.png,17,correct,w,3107,212240.38,215348.2,6,16,15
17,M270722,18,False,0,Tamanid_1.jpg,0,q,Tamanid_1_14.png,18,correct,q,2362,221305.61,223667.95,6,15,14
18,M270722,19,False,0,Finger_1.jpg,0,q,Finger_1_14.png,19,correct,q,2862,229620.5,232483.33,6,15,14
19,M270722,20,False,0,Sapota_1.jpg,0,s,Sapota_1_17.png,20,correct,s,5025,238435.62,243460.71,6,14,17
20,M270722,21,False,0,Noni_1.jpg,0,a,Noni_1_16.png,21,correct,a,1680,249412.08,251092.29,6,17,16
21,M270722,22,False,0,Ake_1.jpg,0,s,Ake_1_17.png,22,correct,s,1710,257046.48,258756.67,6,14,17
22,M270722,23,False,0,Ackee_1.jpg,0,a,Ackee_1_16.png,23,correct,a,3565,264711.02,268276.56,6,17,16
23,M270722,24,False,0,Gac_1.jpg,0,w,Gac_1_15.png,24,correct,w,1825,274226.55,276051.72,6,16,15
24,M270722,25,False,0,Ackee_1.jpg,0,s,Ackee_1_17.png,25,correct,s,1939,282001.11,283940.16,6,17,17
25,M270722,26,False,0,Gac_1.jpg,0,a,Gac_1_16.png,26,correct,a,988,289895.69,290884.01,6,16,16
26,M270722,27,False,0,ZF_1.jpg,0,a,ZF_1_16.png,27,correct,a,1014,296829.76,297844.51,6,16,16
27,M270722,28,False,0,Tamanid_1.jpg,0,w,Tamanid_1_15.png,28,correct,w,3138,303793.78,306932.07,6,15,15
28,M270722,29,False,0,Finger_1.jpg,0,w,Finger_1_15.png,29,correct,w,1988,312879.11,314867.77,6,15,15
29,M270722,30,False,0,Sapota_1.jpg,0,q,Sapota_1_14.png,30,correct,q,1702,320813.75,322516.08,6,14,14
30,M270722,31,False,0,Noni_1.jpg,0,s,Noni_1_17.png,31,correct,s,2511,328468.25,330980.24,6,17,17
31,M270722,32,False,0,Ake_1.jpg,0,q,Ake_1_14.png,32,correct,q,1279,336933.12,338212.75,6,14,14
0,A2010822,1,False,0,Gac_1.jpg,0,s,Gac_1_17.png,1,incorrect,MISSING_DATA,-153141,120373.89,-32768.0,18,14,17
1,A2010822,2,False,0,ZF_1.jpg,0,s,ZF_1_17.png,2,correct,s,1056,131370.25,132427.14,18,14,17
2,A2010822,3,False,0,Ackee_1.jpg,0,q,Ackee_1_14.png,3,correct,q,2506,138384.36,140891.14,18,15,14
3,A2010822,4,False,0,Noni_1.jpg,0,q,Noni_1_14.png,4,correct,q,2197,146869.36,149066.98,18,15,14
4,A2010822,5,False,0,Sapota_1.jpg,0,w,Sapota_1_15.png,5,correct,w,2504,155044.09,157548.34,18,16,15
5,A2010822,6,False,0,Ake_1.jpg,0,w,Ake_1_15.png,6,correct,w,4359,163509.01,167868.05,18,16,15
6,A2010822,7,False,0,Tamanid_1.jpg,0,a,Tamanid_1_16.png,7,incorrect,MISSING_DATA,-206583,173815.09,-32768.0,18,17,16
7,A2010822,8,False,0,Finger_1.jpg,0,a,Finger_1_16.png,8,correct,a,1954,184841.47,186795.75,18,17,16
8,A2010822,9,False,0,Ake_1.jpg,0,a,Ake_1_16.png,9,incorrect,MISSING_DATA,-225504,192736.12,-32768.0,18,16,16
9,A2010822,10,False,0,Tamanid_1.jpg,0,s,Tamanid_1_17.png,10,correct,s,3757,203742.52,207500.2,18,17,17
10,A2010822,11,False,0,Ackee_1.jpg,0,w,Ackee_1_15.png,11,correct,w,2530,213448.21,215979.14,18,15,15
11,A2010822,12,False,0,Sapota_1.jpg,0,a,Sapota_1_16.png,12,correct,a,2058,221953.12,224011.98,18,16,16
12,A2010822,13,False,0,Gac_1.jpg,0,q,Gac_1_14.png,13,correct,q,996,229957.83,230954.7,18,14,14
13,A2010822,14,False,0,ZF_1.jpg,0,q,ZF_1_14.png,14,correct,q,1095,236931.89,238027.46,18,14,14
14,A2010822,15,False,0,Noni_1.jpg,0,w,Noni_1_15.png,15,correct,w,2286,243965.96,246252.24,18,15,15
15,A2010822,16,False,0,Finger_1.jpg,0,s,Finger_1_17.png,16,correct,s,1716,252230.82,253947.75,18,17,17
16,A2010822,17,False,0,ZF_1.jpg,0,w,ZF_1_15.png,17,correct,w,1295,259915.28,261210.79,18,14,15
17,A2010822,18,False,0,Tamanid_1.jpg,0,q,Tamanid_1_14.png,18,incorrect,s,4479,267179.56,271658.98,18,17,14
18,A2010822,19,False,0,Finger_1.jpg,0,q,Finger_1_14.png,19,correct,q,2299,277615.65,279915.56,18,17,14
19,A2010822,20,False,0,Sapota_1.jpg,0,s,Sapota_1_17.png,20,correct,s,1506,285880.43,287386.74,18,16,17
20,A2010822,21,False,0,Noni_1.jpg,0,a,Noni_1_16.png,21,correct,a,2180,293334.86,295514.89,18,15,16
21,A2010822,22,False,0,Ake_1.jpg,0,s,Ake_1_17.png,22,correct,s,2192,301499.58,303691.95,18,16,17
22,A2010822,23,False,0,Ackee_1.jpg,0,a,Ackee_1_16.png,23,correct,a,1839,309644.35,311483.6,18,15,16
23,A2010822,24,False,0,Gac_1.jpg,0,w,Gac_1_15.png,24,correct,w,1494,317428.82,318923.46,18,14,15
24,A2010822,25,False,0,Ackee_1.jpg,0,s,Ackee_1_17.png,25,correct,s,1867,324863.18,326730.92,18,15,17
25,A2010822,26,False,0,Gac_1.jpg,0,a,Gac_1_16.png,26,correct,a,4007,332707.78,336715.49,18,14,16
26,A2010822,27,False,0,ZF_1.jpg,0,a,ZF_1_16.png,27,correct,a,1923,342663.56,344586.98,18,14,16
27,A2010822,28,False,0,Tamanid_1.jpg,0,w,Tamanid_1_15.png,28,correct,w,3131,350528.17,353659.62,18,17,15
28,A2010822,29,False,0,Finger_1.jpg,0,w,Finger_1_15.png,29,correct,w,2967,359603.42,362571.14,18,17,15
29,A2010822,30,False,0,Sapota_1.jpg,0,q,Sapota_1_14.png,30,correct,q,1715,368518.64,370234.53,18,16,14
30,A2010822,31,False,0,Noni_1.jpg,0,s,Noni_1_17.png,31,correct,s,3109,376213.19,379323.09,18,15,17
31,A2010822,32,False,0,Ake_1.jpg,0,q,Ake_1_14.png,32,correct,q,2278,385268.41,387547.3,18,16,14
0,D280722,1,False,0,Gac_1.jpg,0,s,Gac_1_17.png,1,correct,s,1773,85524.46,87297.56,10,14,17
1,D280722,2,False,0,ZF_1.jpg,0,s,ZF_1_17.png,2,correct,s,943,93248.91,94192.12,10,14,17
2,D280722,3,False,0,Ackee_1.jpg,0,q,Ackee_1_14.png,3,correct,q,1268,100172.97,101441.21,10,15,14
3,D280722,4,False,0,Noni_1.jpg,0,q,Noni_1_14.png,4,correct,q,2340,107387.15,109727.93,10,15,14
4,D280722,5,False,0,Sapota_1.jpg,0,w,Sapota_1_15.png,5,correct,w,942,115682.03,116624.46,10,16,15
5,D280722,6,False,0,Ake_1.jpg,0,w,Ake_1_15.png,6,correct,w,1136,122576.03,123712.26,10,16,15
6,D280722,7,False,0,Tamanid_1.jpg,0,a,Tamanid_1_16.png,7,correct,a,932,129660.15,130592.51,10,17,16
7,D280722,8,False,0,Finger_1.jpg,0,a,Finger_1_16.png,8,correct,a,1040,136544.14,137584.77,10,17,16
8,D280722,9,False,0,Ake_1.jpg,0,a,Ake_1_16.png,9,correct,a,1051,143558.24,144609.9,10,16,16
9,D280722,10,False,0,Tamanid_1.jpg,0,s,Tamanid_1_17.png,10,correct,s,2426,150582.37,153008.95,10,17,17
10,D280722,11,False,0,Ackee_1.jpg,0,w,Ackee_1_15.png,11,correct,w,1490,158957.23,160447.96,10,15,15
11,D280722,12,False,0,Sapota_1.jpg,0,a,Sapota_1_16.png,12,correct,a,810,166391.63,167201.73,10,16,16
12,D280722,13,False,0,Gac_1.jpg,0,q,Gac_1_14.png,13,correct,q,873,173175.53,174048.8,10,14,14
13,D280722,14,False,0,ZF_1.jpg,0,q,ZF_1_14.png,14,correct,q,785,179999.51,180785.17,10,14,14
14,D280722,15,False,0,Noni_1.jpg,0,w,Noni_1_15.png,15,correct,w,1555,186733.47,188288.7,10,15,15
15,D280722,16,False,0,Finger_1.jpg,0,s,Finger_1_17.png,16,correct,s,1182,194257.85,195440.62,10,17,17
16,D280722,17,False,0,ZF_1.jpg,0,w,ZF_1_15.png,17,correct,w,641,201422.06,202064.01,10,14,15
17,D280722,18,False,0,Tamanid_1.jpg,0,q,Tamanid_1_14.png,18,correct,q,3584,208015.91,211600.53,10,17,14
18,D280722,19,False,0,Finger_1.jpg,0,q,Finger_1_14.png,19,incorrect,s,1441,217551.48,218992.87,10,17,14
19,D280722,20,False,0,Sapota_1.jpg,0,s,Sapota_1_17.png,20,correct,s,1945,224935.76,226881.25,10,16,17
20,D280722,21,False,0,Noni_1.jpg,0,a,Noni_1_16.png,21,correct,a,1316,232860.44,234176.82,10,15,16
21,D280722,22,False,0,Ake_1.jpg,0,s,Ake_1_17.png,22,correct,s,852,240124.59,240977.14,10,16,17
22,D280722,23,False,0,Ackee_1.jpg,0,a,Ackee_1_16.png,23,correct,a,1212,246948.64,248161.04,10,15,16
23,D280722,24,False,0,Gac_1.jpg,0,w,Gac_1_15.png,24,correct,w,794,254102.77,254897.17,10,14,15
24,D280722,25,False,0,Ackee_1.jpg,0,s,Ackee_1_17.png,25,incorrect,w,1938,260846.76,262785.09,10,15,17
25,D280722,26,False,0,Gac_1.jpg,0,a,Gac_1_16.png,26,correct,a,1111,268761.35,269872.82,10,14,16
26,D280722,27,False,0,ZF_1.jpg,0,a,ZF_1_16.png,27,correct,a,794,275815.48,276609.82,10,14,16
27,D280722,28,False,0,Tamanid_1.jpg,0,w,Tamanid_1_15.png,28,correct,w,1244,282549.36,283793.63,10,17,15
28,D280722,29,False,0,Finger_1.jpg,0,w,Finger_1_15.png,29,incorrect,s,992,289743.6,290736.46,10,17,15
29,D280722,30,False,0,Sapota_1.jpg,0,q,Sapota_1_14.png,30,correct,q,4112,296687.62,300800.32,10,16,14
30,D280722,31,False,0,Noni_1.jpg,0,s,Noni_1_17.png,31,correct,s,889,306743.48,307633.01,10,15,17
31,D280722,32,False,0,Ake_1.jpg,0,q,Ake_1_14.png,32,correct,q,1286,313577.51,314864.27,10,16,14
0,I120922,1,False,0,Gac_1.jpg,0,s,Gac_1_17.png,1,correct,s,1986,228754.5,230741.42,22,16,17
1,I120922,2,False,0,ZF_1.jpg,0,s,ZF_1_17.png,2,correct,s,852,236689.05,237541.98,22,16,17
2,I120922,3,False,0,Ackee_1.jpg,0,q,Ackee_1_14.png,3,correct,q,1547,243513.09,245060.9,22,17,14
3,I120922,4,False,0,Noni_1.jpg,0,q,Noni_1_14.png,4,correct,q,1404,251017.46,252421.62,22,17,14
4,I120922,5,False,0,Sapota_1.jpg,0,w,Sapota_1_15.png,5,correct,w,1473,258371.7,259845.61,22,14,15
5,I120922,6,False,0,Ake_1.jpg,0,w,Ake_1_15.png,6,correct,w,1458,265796.05,267254.67,22,14,15
6,I120922,7,False,0,Tamanid_1.jpg,0,a,Tamanid_1_16.png,7,correct,a,1868,273210.38,275078.45,22,15,16
7,I120922,8,False,0,Finger_1.jpg,0,a,Finger_1_16.png,8,correct,a,1098,281034.95,282133.52,22,15,16
8,I120922,9,False,0,Ake_1.jpg,0,a,Ake_1_16.png,9,correct,a,1240,288109.08,289349.56,22,14,16
9,I120922,10,False,0,Tamanid_1.jpg,0,s,Tamanid_1_17.png,10,correct,s,1049,295293.24,296342.54,22,15,17
10,I120922,11,False,0,Ackee_1.jpg,0,w,Ackee_1_15.png,11,correct,w,1175,302287.34,303462.47,22,17,15
11,I120922,12,False,0,Sapota_1.jpg,0,a,Sapota_1_16.png,12,incorrect,q,754,309411.41,310165.52,22,14,16
12,I120922,13,False,0,Gac_1.jpg,0,q,Gac_1_14.png,13,correct,q,946,316115.32,317062.12,22,16,14
13,I120922,14,False,0,ZF_1.jpg,0,q,ZF_1_14.png,14,correct,q,1347,323009.33,324356.78,22,16,14
14,I120922,15,False,0,Noni_1.jpg,0,w,Noni_1_15.png,15,correct,w,1061,330303.64,331365.57,22,17,15
15,I120922,16,False,0,Finger_1.jpg,0,s,Finger_1_17.png,16,correct,s,1119,337317.74,338437.53,22,15,17
16,I120922,17,False,0,ZF_1.jpg,0,w,ZF_1_15.png,17,correct,w,1182,344391.86,345574.58,22,16,15
17,I120922,18,False,0,Tamanid_1.jpg,0,q,Tamanid_1_14.png,18,incorrect,s,2202,351515.99,353718.7,22,15,14
18,I120922,19,False,0,Finger_1.jpg,0,q,Finger_1_14.png,19,incorrect,w,1577,359660.71,361238.06,22,15,14
19,I120922,20,False,0,Sapota_1.jpg,0,s,Sapota_1_17.png,20,correct,s,788,367185.12,367973.35,22,14,17
20,I120922,21,False,0,Noni_1.jpg,0,a,Noni_1_16.png,21,correct,a,1111,373949.07,375060.75,22,17,16
21,I120922,22,False,0,Ake_1.jpg,0,s,Ake_1_17.png,22,correct,s,1088,381013.19,382101.36,22,14,17
22,I120922,23,False,0,Ackee_1.jpg,0,a,Ackee_1_16.png,23,correct,a,1061,388047.23,389108.74,22,17,16
23,I120922,24,False,0,Gac_1.jpg,0,w,Gac_1_15.png,24,correct,w,1142,395071.41,396214.26,22,16,15
24,I120922,25,False,0,Ackee_1.jpg,0,s,Ackee_1_17.png,25,correct,s,1889,402195.48,404085.01,22,17,17
25,I120922,26,False,0,Gac_1.jpg,0,a,Gac_1_16.png,26,correct,a,972,410040.09,411012.73,22,16,16
26,I120922,27,False,0,ZF_1.jpg,0,a,ZF_1_16.png,27,correct,a,810,416954.06,417764.74,22,16,16
27,I120922,28,False,0,Tamanid_1.jpg,0,w,Tamanid_1_15.png,28,correct,w,1129,423708.03,424837.67,22,15,15
28,I120922,29,False,0,Finger_1.jpg,0,w,Finger_1_15.png,29,correct,w,1209,430812.16,432022.08,22,15,15
29,I120922,30,False,0,Sapota_1.jpg,0,q,Sapota_1_14.png,30,incorrect,a,1352,437996.38,439349.05,22,14,14
30,I120922,31,False,0,Noni_1.jpg,0,s,Noni_1_17.png,31,correct,s,1068,445320.64,446389.31,22,17,17
31,I120922,32,False,0,Ake_1.jpg,0,q,Ake_1_14.png,32,correct,q,1420,452344.71,453765.55,22,14,14
0,A140922,1,False,0,Gac_1.jpg,0,s,Gac_1_17.png,1,correct,s,2839,77936.59,80776.28,30,16,17
1,A140922,2,False,0,ZF_1.jpg,0,s,ZF_1_17.png,2,correct,s,1799,86751.69,88551.61,30,16,17
2,A140922,3,False,0,Ackee_1.jpg,0,q,Ackee_1_14.png,3,correct,q,1912,94496.24,96408.52,30,17,14
3,A140922,4,False,0,Noni_1.jpg,0,q,Noni_1_14.png,4,correct,q,1444,102370.77,103814.91,30,17,14
4,A140922,5,False,0,Sapota_1.jpg,0,w,Sapota_1_15.png,5,correct,w,2049,109765.16,111814.75,30,14,15
5,A140922,6,False,0,Ake_1.jpg,0,w,Ake_1_15.png,6,correct,w,1277,117769.84,119047.82,30,14,15
6,A140922,7,False,0,Tamanid_1.jpg,0,a,Tamanid_1_16.png,7,correct,a,3595,125004.01,128599.78,30,15,16
7,A140922,8,False,0,Finger_1.jpg,0,a,Finger_1_16.png,8,correct,a,2289,134549.58,136839.17,30,15,16
8,A140922,9,False,0,Ake_1.jpg,0,a,Ake_1_16.png,9,correct,a,3574,142784.39,146359.39,30,14,16
9,A140922,10,False,0,Tamanid_1.jpg,0,s,Tamanid_1_17.png,10,correct,s,3651,152339.89,155991.67,30,15,17
10,A140922,11,False,0,Ackee_1.jpg,0,w,Ackee_1_15.png,11,correct,w,1338,161965.5,163304.26,30,17,15
11,A140922,12,False,0,Sapota_1.jpg,0,a,Sapota_1_16.png,12,correct,a,2032,169269.73,171302.46,30,14,16
12,A140922,13,False,0,Gac_1.jpg,0,q,Gac_1_14.png,13,correct,q,778,177244.37,178023.26,30,16,14
13,A140922,14,False,0,ZF_1.jpg,0,q,ZF_1_14.png,14,correct,q,1478,183968.36,185446.58,30,16,14
14,A140922,15,False,0,Noni_1.jpg,0,w,Noni_1_15.png,15,correct,w,2887,191392.66,194280.25,30,17,15
15,A140922,16,False,0,Finger_1.jpg,0,s,Finger_1_17.png,16,correct,s,2728,200237.81,202966.44,30,15,17
16,A140922,17,False,0,ZF_1.jpg,0,w,ZF_1_15.png,17,incorrect,MISSING_DATA,-241710,208942.91,-32768.0,30,16,15
17,A140922,18,False,0,Tamanid_1.jpg,0,q,Tamanid_1_14.png,18,correct,q,2374,219969.3,222343.36,30,15,14
18,A140922,19,False,0,Finger_1.jpg,0,q,Finger_1_14.png,19,correct,q,1200,228294.13,229494.82,30,15,14
19,A140922,20,False,0,Sapota_1.jpg,0,s,Sapota_1_17.png,20,correct,s,1129,235438.34,236567.45,30,14,17
20,A140922,21,False,0,Noni_1.jpg,0,a,Noni_1_16.png,21,correct,a,1398,242512.4,243911.03,30,17,16
21,A140922,22,False,0,Ake_1.jpg,0,s,Ake_1_17.png,22,correct,s,1095,249856.66,250951.8,30,14,17
22,A140922,23,False,0,Ackee_1.jpg,0,a,Ackee_1_16.png,23,correct,a,1089,256900.82,257990.51,30,17,16
23,A140922,24,False,0,Gac_1.jpg,0,w,Gac_1_15.png,24,correct,w,1112,263934.94,265047.55,30,16,15
24,A140922,25,False,0,Ackee_1.jpg,0,s,Ackee_1_17.png,25,correct,s,1899,271019.01,272918.68,30,17,17
25,A140922,26,False,0,Gac_1.jpg,0,a,Gac_1_16.png,26,correct,a,1111,278863.55,279975.3,30,16,16
26,A140922,27,False,0,ZF_1.jpg,0,a,ZF_1_16.png,27,correct,a,1016,285917.72,286934.51,30,16,16
27,A140922,28,False,0,Tamanid_1.jpg,0,w,Tamanid_1_15.png,28,correct,w,1540,292881.73,294422.53,30,15,15
28,A140922,29,False,0,Finger_1.jpg,0,w,Finger_1_15.png,29,correct,w,1338,300366.08,301704.11,30,15,15
29,A140922,30,False,0,Sapota_1.jpg,0,q,Sapota_1_14.png,30,correct,q,979,307650.37,308630.28,30,14,14
30,A140922,31,False,0,Noni_1.jpg,0,s,Noni_1_17.png,31,correct,s,2163,314594.38,316758.31,30,17,17
31,A140922,32,False,0,Ake_1.jpg,0,q,Ake_1_14.png,32,correct,q,1250,322709.13,323959.39,30,14,14
0,P010822,1,False,0,Gac_1.jpg,0,s,Gac_1_17.png,1,incorrect,MISSING_DATA,-164500,131732.48,-32768.0,19,14,17
1,P010822,2,False,0,ZF_1.jpg,0,s,ZF_1_17.png,2,incorrect,MISSING_DATA,-175526,142758.92,-32768.0,19,14,17
2,P010822,3,False,0,Ackee_1.jpg,0,q,Ackee_1_14.png,3,correct,q,2825,153765.28,156590.69,19,15,14
3,P010822,4,False,0,Noni_1.jpg,0,q,Noni_1_14.png,4,correct,q,2994,162540.41,165534.7,19,15,14
4,P010822,5,False,0,Sapota_1.jpg,0,w,Sapota_1_15.png,5,correct,w,2872,171495.66,174367.8,19,16,15
5,P010822,6,False,0,Ake_1.jpg,0,w,Ake_1_15.png,6,correct,w,2655,180320.77,182976.22,19,16,15
6,P010822,7,False,0,Tamanid_1.jpg,0,a,Tamanid_1_16.png,7,correct,a,3431,188935.81,192367.31,19,17,16
7,P010822,8,False,0,Finger_1.jpg,0,a,Finger_1_16.png,8,correct,a,2669,198321.31,200990.64,19,17,16
8,P010822,9,False,0,Ake_1.jpg,0,a,Ake_1_16.png,9,incorrect,MISSING_DATA,-239704,206936.37,-32768.0,19,16,16
9,P010822,10,False,0,Tamanid_1.jpg,0,s,Tamanid_1_17.png,10,correct,s,1843,217932.76,219775.85,19,17,17
10,P010822,11,False,0,Ackee_1.jpg,0,w,Ackee_1_15.png,11,correct,w,1692,225747.29,227440.16,19,15,15
11,P010822,12,False,0,Sapota_1.jpg,0,a,Sapota_1_16.png,12,correct,a,2271,233391.79,235663.32,19,16,16
12,P010822,13,False,0,Gac_1.jpg,0,q,Gac_1_14.png,13,correct,q,1929,241606.55,243536.08,19,14,14
13,P010822,14,False,0,ZF_1.jpg,0,q,ZF_1_14.png,14,correct,q,1767,249511.15,251279.05,19,14,14
14,P010822,15,False,0,Noni_1.jpg,0,w,Noni_1_15.png,15,correct,w,4885,257225.71,262110.84,19,15,15
15,P010822,16,False,0,Finger_1.jpg,0,s,Finger_1_17.png,16,incorrect,MISSING_DATA,-300830,268062.0,-32768.0,19,17,17
16,P010822,17,False,0,ZF_1.jpg,0,w,ZF_1_15.png,17,correct,w,1592,279078.47,280671.11,19,14,15
17,P010822,18,False,0,Tamanid_1.jpg,0,q,Tamanid_1_14.png,18,correct,q,2368,286622.8,288991.62,19,17,14
18,P010822,19,False,0,Finger_1.jpg,0,q,Finger_1_14.png,19,correct,q,1944,294967.72,296911.86,19,17,14
19,P010822,20,False,0,Sapota_1.jpg,0,s,Sapota_1_17.png,20,correct,s,2925,302882.29,305808.05,19,16,17
20,P010822,21,False,0,Noni_1.jpg,0,a,Noni_1_16.png,21,correct,a,2546,311757.54,314304.16,19,15,16
21,P010822,22,False,0,Ake_1.jpg,0,s,Ake_1_17.png,22,correct,s,1812,320282.51,322095.29,19,16,17
22,P010822,23,False,0,Ackee_1.jpg,0,a,Ackee_1_16.png,23,correct,a,1984,328047.01,330031.25,19,15,16
23,P010822,24,False,0,Gac_1.jpg,0,w,Gac_1_15.png,24,incorrect,MISSING_DATA,-368769,336001.63,-32768.0,19,14,15
24,P010822,25,False,0,Ackee_1.jpg,0,s,Ackee_1_17.png,25,correct,s,4696,346998.06,351694.74,19,15,17
25,P010822,26,False,0,Gac_1.jpg,0,a,Gac_1_16.png,26,correct,a,3766,357674.31,361440.33,19,14,16
26,P010822,27,False,0,ZF_1.jpg,0,a,ZF_1_16.png,27,correct,a,1628,367409.96,369038.87,19,14,16
27,P010822,28,False,0,Tamanid_1.jpg,0,w,Tamanid_1_15.png,28,correct,w,1670,374984.41,376655.06,19,17,15
28,P010822,29,False,0,Finger_1.jpg,0,w,Finger_1_15.png,29,correct,w,1736,382598.86,384335.19,19,17,15
29,P010822,30,False,0,Sapota_1.jpg,0,q,Sapota_1_14.png,30,incorrect,MISSING_DATA,-423061,390293.29,-32768.0,19,16,14
30,P010822,31,False,0,Noni_1.jpg,0,s,Noni_1_17.png,31,correct,s,2069,401289.78,403359.62,19,15,17
31,P010822,32,False,0,Ake_1.jpg,0,q,Ake_1_14.png,32,correct,q,2470,409304.42,411774.82,19,16,14
0,A270722,1,False,0,Gac_1.jpg,0,s,Gac_1_17.png,1,correct,s,1554,79594.37,81149.13,7,16,17
1,A270722,2,False,0,ZF_1.jpg,0,s,ZF_1_17.png,2,correct,s,1844,87128.78,88972.97,7,16,17
2,A270722,3,False,0,Ackee_1.jpg,0,q,Ackee_1_14.png,3,correct,q,2295,94933.29,97228.95,7,17,14
3,A270722,4,False,0,Noni_1.jpg,0,q,Noni_1_14.png,4,correct,q,1256,103188.1,104444.11,7,17,14
4,A270722,5,False,0,Sapota_1.jpg,0,w,Sapota_1_15.png,5,correct,w,1093,110392.37,111485.49,7,14,15
5,A270722,6,False,0,Ake_1.jpg,0,w,Ake_1_15.png,6,correct,w,1094,117446.45,118540.85,7,14,15
6,A270722,7,False,0,Tamanid_1.jpg,0,a,Tamanid_1_16.png,7,incorrect,w,1553,124490.53,126044.13,7,15,16
7,A270722,8,False,0,Finger_1.jpg,0,a,Finger_1_16.png,8,correct,a,1409,131994.92,133403.93,7,15,16
8,A270722,9,False,0,Ake_1.jpg,0,a,Ake_1_16.png,9,correct,a,1303,139349.26,140652.46,7,14,16
9,A270722,10,False,0,Tamanid_1.jpg,0,s,Tamanid_1_17.png,10,correct,s,1265,146603.52,147869.11,7,15,17
10,A270722,11,False,0,Ackee_1.jpg,0,w,Ackee_1_15.png,11,correct,w,1203,153817.68,155021.22,7,17,15
11,A270722,12,False,0,Sapota_1.jpg,0,a,Sapota_1_16.png,12,correct,a,1026,161001.9,162028.54,7,14,16
12,A270722,13,False,0,Gac_1.jpg,0,q,Gac_1_14.png,13,correct,q,874,167985.98,168860.7,7,16,14
13,A270722,14,False,0,ZF_1.jpg,0,q,ZF_1_14.png,14,correct,q,787,174809.91,175597.03,7,16,14
14,A270722,15,False,0,Noni_1.jpg,0,w,Noni_1_15.png,15,correct,w,757,181543.84,182301.05,7,17,15
15,A270722,16,False,0,Finger_1.jpg,0,s,Finger_1_17.png,16,incorrect,w,1732,188247.73,189980.01,7,15,17
16,A270722,17,False,0,ZF_1.jpg,0,w,ZF_1_15.png,17,correct,w,1313,195932.21,197245.24,7,16,15
17,A270722,18,False,0,Tamanid_1.jpg,0,q,Tamanid_1_14.png,18,correct,q,2015,203196.5,205211.75,7,15,14
18,A270722,19,False,0,Finger_1.jpg,0,q,Finger_1_14.png,19,correct,q,1411,211161.1,212572.35,7,15,14
19,A270722,20,False,0,Sapota_1.jpg,0,s,Sapota_1_17.png,20,correct,s,1102,218525.47,219627.78,7,14,17
20,A270722,21,False,0,Noni_1.jpg,0,a,Noni_1_16.png,21,correct,a,1970,225609.53,227580.12,7,17,16
21,A270722,22,False,0,Ake_1.jpg,0,s,Ake_1_17.png,22,correct,s,893,233534.15,234427.81,7,14,17
22,A270722,23,False,0,Ackee_1.jpg,0,a,Ackee_1_16.png,23,correct,a,1219,240378.2,241597.61,7,17,16
23,A270722,24,False,0,Gac_1.jpg,0,w,Gac_1_15.png,24,correct,w,861,247552.4,248413.55,7,16,15
24,A270722,25,False,0,Ackee_1.jpg,0,s,Ackee_1_17.png,25,correct,s,1897,254386.34,256284.13,7,17,17
25,A270722,26,False,0,Gac_1.jpg,0,a,Gac_1_16.png,26,correct,a,1112,262260.92,263372.96,7,16,16
26,A270722,27,False,0,ZF_1.jpg,0,a,ZF_1_16.png,27,correct,a,1471,269325.11,270796.93,7,16,16
27,A270722,28,False,0,Tamanid_1.jpg,0,w,Tamanid_1_15.png,28,correct,w,943,276749.41,277692.46,7,15,15
28,A270722,29,False,0,Finger_1.jpg,0,w,Finger_1_15.png,29,correct,w,1536,283643.39,285179.99,7,15,15
29,A270722,30,False,0,Sapota_1.jpg,0,q,Sapota_1_14.png,30,correct,q,1196,291167.79,292364.36,7,14,14
30,A270722,31,False,0,Noni_1.jpg,0,s,Noni_1_17.png,31,correct,s,906,298321.97,299228.34,7,17,17
31,A270722,32,False,0,Ake_1.jpg,0,q,Ake_1_14.png,32,correct,q,1701,305175.95,306877.34,7,14,14
0,T140922,1,False,0,Gac_1.jpg,0,s,Gac_1_17.png,1,correct,s,1531,86428.01,87959.11,29,15,17
1,T140922,2,False,0,ZF_1.jpg,0,s,ZF_1_17.png,2,incorrect,w,2687,93912.34,96600.03,29,15,17
2,T140922,3,False,0,Ackee_1.jpg,0,q,Ackee_1_14.png,3,correct,q,1332,102547.33,103879.92,29,16,14
3,T140922,4,False,0,Noni_1.jpg,0,q,Noni_1_14.png,4,correct,q,1008,109831.62,110839.83,29,16,14
4,T140922,5,False,0,Sapota_1.jpg,0,w,Sapota_1_15.png,5,correct,w,1944,116815.69,118759.86,29,17,15
5,T140922,6,False,0,Ake_1.jpg,0,w,Ake_1_15.png,6,correct,w,1232,124710.29,125942.77,29,17,15
6,T140922,7,False,0,Tamanid_1.jpg,0,a,Tamanid_1_16.png,7,incorrect,q,2432,131894.46,134327.06,29,14,16
7,T140922,8,False,0,Finger_1.jpg,0,a,Finger_1_16.png,8,correct,a,1958,140289.32,142247.98,29,14,16
8,T140922,9,False,0,Ake_1.jpg,0,a,Ake_1_16.png,9,incorrect,s,2196,148193.95,150390.38,29,17,16
9,T140922,10,False,0,Tamanid_1.jpg,0,s,Tamanid_1_17.png,10,correct,s,1386,156348.71,157735.21,29,14,17
10,T140922,11,False,0,Ackee_1.jpg,0,w,Ackee_1_15.png,11,correct,w,2142,163672.99,165815.46,29,16,15
11,T140922,12,False,0,Sapota_1.jpg,0,a,Sapota_1_16.png,12,correct,a,1200,171767.72,172967.82,29,17,16
12,T140922,13,False,0,Gac_1.jpg,0,q,Gac_1_14.png,13,correct,q,950,178911.86,179862.62,29,15,14
13,T140922,14,False,0,ZF_1.jpg,0,q,ZF_1_14.png,14,correct,q,1529,185805.88,187335.22,29,15,14
14,T140922,15,False,0,Noni_1.jpg,0,w,Noni_1_15.png,15,correct,w,1094,193280.22,194375.03,29,16,15
15,T140922,16,False,0,Finger_1.jpg,0,s,Finger_1_17.png,16,correct,s,2101,200354.3,202455.49,29,14,17
16,T140922,17,False,0,ZF_1.jpg,0,w,ZF_1_15.png,17,correct,w,1481,208429.07,209910.68,29,15,15
17,T140922,18,False,0,Tamanid_1.jpg,0,q,Tamanid_1_14.png,18,correct,q,1561,215853.36,217414.53,29,14,14
18,T140922,19,False,0,Finger_1.jpg,0,q,Finger_1_14.png,19,correct,q,1609,223357.73,224966.76,29,14,14
19,T140922,20,False,0,Sapota_1.jpg,0,s,Sapota_1_17.png,20,correct,s,2310,230912.18,233222.84,29,17,17
20,T140922,21,False,0,Noni_1.jpg,0,a,Noni_1_16.png,21,incorrect,s,4989,239176.95,244166.51,29,16,16
21,T140922,22,False,0,Ake_1.jpg,0,s,Ake_1_17.png,22,correct,s,1462,250143.37,251606.3,29,17,17
22,T140922,23,False,0,Ackee_1.jpg,0,a,Ackee_1_16.png,23,correct,a,1659,257547.64,259207.0,29,16,16
23,T140922,24,False,0,Gac_1.jpg,0,w,Gac_1_15.png,24,correct,w,1772,265162.09,266934.69,29,15,15
24,T140922,25,False,0,Ackee_1.jpg,0,s,Ackee_1_17.png,25,correct,s,1232,272886.59,274119.53,29,16,17
25,T140922,26,False,0,Gac_1.jpg,0,a,Gac_1_16.png,26,correct,a,2774,280080.8,282855.58,29,15,16
26,T140922,27,False,0,ZF_1.jpg,0,a,ZF_1_16.png,27,correct,a,3184,288805.86,291990.16,29,15,16
27,T140922,28,False,0,Tamanid_1.jpg,0,w,Tamanid_1_15.png,28,correct,w,1585,297941.2,299526.88,29,14,15
28,T140922,29,False,0,Finger_1.jpg,0,w,Finger_1_15.png,29,correct,w,1300,305475.57,306775.8,29,14,15
29,T140922,30,False,0,Sapota_1.jpg,0,q,Sapota_1_14.png,30,correct,q,1656,312719.82,314376.07,29,17,14
30,T140922,31,False,0,Noni_1.jpg,0,s,Noni_1_17.png,31,correct,s,1445,320354.27,321799.3,29,16,17
31,T140922,32,False,0,Ake_1.jpg,0,q,Ake_1_14.png,32,correct,q,2417,327748.53,330166.12,29,17,14
0,V290722,1,False,0,Gac_1.jpg,0,s,Gac_1_17.png,1,correct,s,1834,122577.49,124411.77,14,16,17
1,V290722,2,False,0,ZF_1.jpg,0,s,ZF_1_17.png,2,correct,s,897,130362.07,131259.13,14,16,17
2,V290722,3,False,0,Ackee_1.jpg,0,q,Ackee_1_14.png,3,incorrect,a,1093,137206.07,138299.1,14,17,14
3,V290722,4,False,0,Noni_1.jpg,0,q,Noni_1_14.png,4,correct,q,1533,144270.13,145803.88,14,17,14
4,V290722,5,False,0,Sapota_1.jpg,0,w,Sapota_1_15.png,5,correct,w,1986,151754.51,153740.55,14,14,15
5,V290722,6,False,0,Ake_1.jpg,0,w,Ake_1_15.png,6,correct,w,1572,159719.18,161291.81,14,14,15
6,V290722,7,False,0,Tamanid_1.jpg,0,a,Tamanid_1_16.png,7,incorrect,w,1798,167253.56,169052.5,14,15,16
7,V290722,8,False,0,Finger_1.jpg,0,a,Finger_1_16.png,8,incorrect,w,1467,175008.09,176475.32,14,15,16
8,V290722,9,False,0,Ake_1.jpg,0,a,Ake_1_16.png,9,correct,a,1173,182422.45,183595.45,14,14,16
9,V290722,10,False,0,Tamanid_1.jpg,0,s,Tamanid_1_17.png,10,correct,s,2226,189546.62,191772.76,14,15,17
10,V290722,11,False,0,Ackee_1.jpg,0,w,Ackee_1_15.png,11,correct,w,1073,197721.39,198794.9,14,17,15
11,V290722,12,False,0,Sapota_1.jpg,0,a,Sapota_1_16.png,12,correct,a,1073,204745.49,205818.78,14,14,16
12,V290722,13,False,0,Gac_1.jpg,0,q,Gac_1_14.png,13,correct,q,769,211769.53,212538.96,14,16,14
13,V290722,14,False,0,ZF_1.jpg,0,q,ZF_1_14.png,14,correct,q,1165,218493.5,219659.2,14,16,14
14,V290722,15,False,0,Noni_1.jpg,0,w,Noni_1_15.png,15,correct,w,1478,225637.66,227116.45,14,17,15
15,V290722,16,False,0,Finger_1.jpg,0,s,Finger_1_17.png,16,correct,s,2470,233062.01,235532.01,14,15,17
16,V290722,17,False,0,ZF_1.jpg,0,w,ZF_1_15.png,17,correct,w,1559,241476.86,243036.1,14,16,15
17,V290722,18,False,0,Tamanid_1.jpg,0,q,Tamanid_1_14.png,18,correct,q,2300,248991.31,251291.4,14,15,14
18,V290722,19,False,0,Finger_1.jpg,0,q,Finger_1_14.png,19,correct,q,2510,257246.12,259756.73,14,15,14
19,V290722,20,False,0,Sapota_1.jpg,0,s,Sapota_1_17.png,20,correct,s,901,265701.01,266602.86,14,14,17
20,V290722,21,False,0,Noni_1.jpg,0,a,Noni_1_16.png,21,correct,a,2508,272575.08,275083.09,14,17,16
21,V290722,22,False,0,Ake_1.jpg,0,s,Ake_1_17.png,22,correct,s,1340,281039.95,282380.29,14,14,17
22,V290722,23,False,0,Ackee_1.jpg,0,a,Ackee_1_16.png,23,correct,a,1319,288324.23,289644.23,14,17,16
23,V290722,24,False,0,Gac_1.jpg,0,w,Gac_1_15.png,24,correct,w,1686,295588.53,297275.23,14,16,15
24,V290722,25,False,0,Ackee_1.jpg,0,s,Ackee_1_17.png,25,correct,s,1652,303222.96,304875.07,14,17,17
25,V290722,26,False,0,Gac_1.jpg,0,a,Gac_1_16.png,26,correct,a,912,310827.37,311739.68,14,16,16
26,V290722,27,False,0,ZF_1.jpg,0,a,ZF_1_16.png,27,correct,a,737,317691.38,318428.53,14,16,16
27,V290722,28,False,0,Tamanid_1.jpg,0,w,Tamanid_1_15.png,28,correct,w,4836,324375.29,329211.64,14,15,15
28,V290722,29,False,0,Finger_1.jpg,0,w,Finger_1_15.png,29,correct,w,1489,335161.56,336651.26,14,15,15
29,V290722,30,False,0,Sapota_1.jpg,0,q,Sapota_1_14.png,30,correct,q,2506,342625.91,345132.79,14,14,14
30,V290722,31,False,0,Noni_1.jpg,0,s,Noni_1_17.png,31,correct,s,1474,351080.83,352555.39,14,17,17
31,V290722,32,False,0,Ake_1.jpg,0,q,Ake_1_14.png,32,correct,q,2014,358525.25,360539.94,14,14,14
0,A150922,1,False,0,Gac_1.jpg,0,s,Gac_1_17.png,1,correct,s,2373,261716.85,264090.61,15,16,17
1,A150922,2,False,0,ZF_1.jpg,0,s,ZF_1_17.png,2,correct,s,1259,270031.72,271291.19,15,16,17
2,A150922,3,False,0,Ackee_1.jpg,0,q,Ackee_1_14.png,3,correct,q,1877,277235.92,279113.8,15,17,14
3,A150922,4,False,0,Noni_1.jpg,0,q,Noni_1_14.png,4,correct,q,1430,285060.49,286490.58,15,17,14
4,A150922,5,False,0,Sapota_1.jpg,0,w,Sapota_1_15.png,5,correct,w,1805,292444.73,294250.17,15,14,15
5,A150922,6,False,0,Ake_1.jpg,0,w,Ake_1_15.png,6,correct,w,1843,300199.29,302042.37,15,14,15
6,A150922,7,False,0,Tamanid_1.jpg,0,a,Tamanid_1_16.png,7,correct,a,3610,307983.77,311594.37,15,15,16
7,A150922,8,False,0,Finger_1.jpg,0,a,Finger_1_16.png,8,correct,a,1449,317569.39,319018.42,15,15,16
8,A150922,9,False,0,Ake_1.jpg,0,a,Ake_1_16.png,9,correct,a,1606,324963.66,326570.18,15,14,16
9,A150922,10,False,0,Tamanid_1.jpg,0,s,Tamanid_1_17.png,10,correct,s,3060,332518.05,335578.24,15,15,17
10,A150922,11,False,0,Ackee_1.jpg,0,w,Ackee_1_15.png,11,correct,w,2872,341523.32,344395.53,15,17,15
11,A150922,12,False,0,Sapota_1.jpg,0,a,Sapota_1_16.png,12,correct,a,1133,350348.49,351481.76,15,14,16
12,A150922,13,False,0,Gac_1.jpg,0,q,Gac_1_14.png,13,correct,q,1371,357422.55,358794.27,15,16,14
13,A150922,14,False,0,ZF_1.jpg,0,q,ZF_1_14.png,14,incorrect,a,2057,364736.84,366793.95,15,16,14
14,A150922,15,False,0,Noni_1.jpg,0,w,Noni_1_15.png,15,correct,w,2798,372731.48,375530.22,15,17,15
15,A150922,16,False,0,Finger_1.jpg,0,s,Finger_1_17.png,16,correct,s,1863,381506.62,383370.27,15,15,17
16,A150922,17,False,0,ZF_1.jpg,0,w,ZF_1_15.png,17,correct,w,1856,389321.17,391178.1,15,16,15
17,A150922,18,False,0,Tamanid_1.jpg,0,q,Tamanid_1_14.png,18,correct,q,1454,397115.66,398569.78,15,15,14
18,A150922,19,False,0,Finger_1.jpg,0,q,Finger_1_14.png,19,correct,q,3213,404510.03,407723.64,15,15,14
19,A150922,20,False,0,Sapota_1.jpg,0,s,Sapota_1_17.png,20,correct,s,4031,413675.3,417707.08,15,14,17
20,A150922,21,False,0,Noni_1.jpg,0,a,Noni_1_16.png,21,incorrect,MISSING_DATA,-456439,423671.14,-32768.0,15,17,16
21,A150922,22,False,0,Ake_1.jpg,0,s,Ake_1_17.png,22,incorrect,MISSING_DATA,-467425,434657.5,-32768.0,15,14,17
22,A150922,23,False,0,Ackee_1.jpg,0,a,Ackee_1_16.png,23,correct,a,1605,445653.92,447258.96,15,17,16
23,A150922,24,False,0,Gac_1.jpg,0,w,Gac_1_15.png,24,correct,w,1332,453238.3,454570.88,15,16,15
24,A150922,25,False,0,Ackee_1.jpg,0,s,Ackee_1_17.png,25,incorrect,q,4378,460512.54,464891.52,15,17,17
25,A150922,26,False,0,Gac_1.jpg,0,a,Gac_1_16.png,26,correct,a,1439,470858.57,472298.52,15,16,16
26,A150922,27,False,0,ZF_1.jpg,0,a,ZF_1_16.png,27,correct,a,1347,478262.88,479610.04,15,16,16
27,A150922,28,False,0,Tamanid_1.jpg,0,w,Tamanid_1_15.png,28,incorrect,s,4934,485557.13,490491.33,15,15,15
28,A150922,29,False,0,Finger_1.jpg,0,w,Finger_1_15.png,29,correct,w,1375,496443.48,497819.36,15,15,15
29,A150922,30,False,0,Sapota_1.jpg,0,q,Sapota_1_14.png,30,correct,q,1283,503767.73,505050.79,15,14,14
30,A150922,31,False,0,Noni_1.jpg,0,s,Noni_1_17.png,31,incorrect,q,3370,510991.93,514362.45,15,17,17
31,A150922,32,False,0,Ake_1.jpg,0,q,Ake_1_14.png,32,correct,q,1446,520307.37,521753.83,15,14,14
0,N120922,1,False,0,Gac_1.jpg,0,s,Gac_1_17.png,1,correct,s,2652,93756.52,96409.22,24,17,17
1,N120922,2,False,0,ZF_1.jpg,0,s,ZF_1_17.png,2,correct,s,1358,102361.47,103720.11,24,17,17
2,N120922,3,False,0,Ackee_1.jpg,0,q,Ackee_1_14.png,3,correct,q,845,109675.79,110520.96,24,14,14
3,N120922,4,False,0,Noni_1.jpg,0,q,Noni_1_14.png,4,correct,q,1141,116499.71,117640.99,24,14,14
4,N120922,5,False,0,Sapota_1.jpg,0,w,Sapota_1_15.png,5,correct,w,1518,123593.85,125112.84,24,15,15
5,N120922,6,False,0,Ake_1.jpg,0,w,Ake_1_15.png,6,correct,w,1243,131068.26,132312.22,24,15,15
6,N120922,7,False,0,Tamanid_1.jpg,0,a,Tamanid_1_16.png,7,correct,a,756,138292.41,139049.19,24,16,16
7,N120922,8,False,0,Finger_1.jpg,0,a,Finger_1_16.png,8,correct,a,1530,145006.33,146536.91,24,16,16
8,N120922,9,False,0,Ake_1.jpg,0,a,Ake_1_16.png,9,incorrect,s,2398,152490.72,154888.96,24,15,16
9,N120922,10,False,0,Tamanid_1.jpg,0,s,Tamanid_1_17.png,10,correct,s,1206,160865.59,162071.89,24,16,17
10,N120922,11,False,0,Ackee_1.jpg,0,w,Ackee_1_15.png,11,correct,w,1076,168019.77,169095.85,24,14,15
11,N120922,12,False,0,Sapota_1.jpg,0,a,Sapota_1_16.png,12,correct,a,821,175043.86,175865.24,24,15,16
12,N120922,13,False,0,Gac_1.jpg,0,q,Gac_1_14.png,13,incorrect,w,1823,181817.76,183640.92,24,17,14
13,N120922,14,False,0,ZF_1.jpg,0,q,ZF_1_14.png,14,correct,q,1274,189582.32,190856.52,24,17,14
14,N120922,15,False,0,Noni_1.jpg,0,w,Noni_1_15.png,15,correct,w,1026,196806.54,197833.41,24,14,15
15,N120922,16,False,0,Finger_1.jpg,0,s,Finger_1_17.png,16,correct,s,1188,203780.54,204968.6,24,16,17
16,N120922,17,False,0,ZF_1.jpg,0,w,ZF_1_15.png,17,correct,w,1845,210914.77,212760.27,24,17,15
17,N120922,18,False,0,Tamanid_1.jpg,0,q,Tamanid_1_14.png,18,incorrect,a,1139,218709.26,219848.47,24,16,14
18,N120922,19,False,0,Finger_1.jpg,0,q,Finger_1_14.png,19,correct,q,1161,225823.42,226984.95,24,16,14
19,N120922,20,False,0,Sapota_1.jpg,0,s,Sapota_1_17.png,20,correct,s,1369,232927.58,234297.51,24,15,17
20,N120922,21,False,0,Noni_1.jpg,0,a,Noni_1_16.png,21,correct,a,1094,240241.8,241336.25,24,14,16
21,N120922,22,False,0,Ake_1.jpg,0,s,Ake_1_17.png,22,correct,s,978,247285.92,248264.45,24,15,17
22,N120922,23,False,0,Ackee_1.jpg,0,a,Ackee_1_16.png,23,correct,a,840,254239.99,255080.27,24,14,16
23,N120922,24,False,0,Gac_1.jpg,0,w,Gac_1_15.png,24,incorrect,q,2395,261053.94,263449.62,24,17,15
24,N120922,25,False,0,Ackee_1.jpg,0,s,Ackee_1_17.png,25,correct,s,850,269398.8,270249.12,24,14,17
25,N120922,26,False,0,Gac_1.jpg,0,a,Gac_1_16.png,26,correct,a,2006,276192.74,278199.65,24,17,16
26,N120922,27,False,0,ZF_1.jpg,0,a,ZF_1_16.png,27,correct,a,789,284147.35,284937.17,24,17,16
27,N120922,28,False,0,Tamanid_1.jpg,0,w,Tamanid_1_15.png,28,incorrect,a,942,290891.32,291833.63,24,16,15
28,N120922,29,False,0,Finger_1.jpg,0,w,Finger_1_15.png,29,correct,w,1050,297805.3,298855.63,24,16,15
29,N120922,30,False,0,Sapota_1.jpg,0,q,Sapota_1_14.png,30,correct,q,666,304829.46,305496.09,24,15,14
30,N120922,31,False,0,Noni_1.jpg,0,s,Noni_1_17.png,31,correct,s,807,311473.29,312280.34,24,14,17
31,N120922,32,False,0,Ake_1.jpg,0,q,Ake_1_14.png,32,correct,q,805,318227.24,319033.16,24,15,14
0,M250722,1,False,0,Gac_1.jpg,0,s,Gac_1_17.png,1,correct,s,1401,83552.13,84953.38,2,14,17
1,M250722,2,False,0,ZF_1.jpg,0,s,ZF_1_17.png,2,correct,s,1096,90896.43,91992.85,2,14,17
2,M250722,3,False,0,Ackee_1.jpg,0,q,Ackee_1_14.png,3,correct,q,1503,97930.54,99433.59,2,15,14
3,M250722,4,False,0,Noni_1.jpg,0,q,Noni_1_14.png,4,correct,q,1311,105384.86,106696.29,2,15,14
4,M250722,5,False,0,Sapota_1.jpg,0,w,Sapota_1_15.png,5,correct,w,1419,112669.07,114088.68,2,16,15
5,M250722,6,False,0,Ake_1.jpg,0,w,Ake_1_15.png,6,correct,w,806,120033.42,120840.05,2,16,15
6,M250722,7,False,0,Tamanid_1.jpg,0,a,Tamanid_1_16.png,7,correct,a,1382,126787.36,128169.6,2,17,16
7,M250722,8,False,0,Finger_1.jpg,0,a,Finger_1_16.png,8,correct,a,1272,134111.63,135384.61,2,17,16
8,M250722,9,False,0,Ake_1.jpg,0,a,Ake_1_16.png,9,correct,a,1323,141325.88,142648.96,2,16,16
9,M250722,10,False,0,Tamanid_1.jpg,0,s,Tamanid_1_17.png,10,correct,s,1200,148600.06,149800.56,2,17,17
10,M250722,11,False,0,Ackee_1.jpg,0,w,Ackee_1_15.png,11,correct,w,1461,155764.25,157225.73,2,15,15
11,M250722,12,False,0,Sapota_1.jpg,0,a,Sapota_1_16.png,12,correct,a,1240,163168.55,164408.6,2,16,16
12,M250722,13,False,0,Gac_1.jpg,0,q,Gac_1_14.png,13,correct,q,711,170352.75,171064.51,2,14,14
13,M250722,14,False,0,ZF_1.jpg,0,q,ZF_1_14.png,14,correct,q,666,177006.63,177673.59,2,14,14
14,M250722,15,False,0,Noni_1.jpg,0,w,Noni_1_15.png,15,correct,w,1123,183620.49,184744.02,2,15,15
15,M250722,16,False,0,Finger_1.jpg,0,s,Finger_1_17.png,16,correct,s,1421,190684.64,192106.05,2,17,17
16,M250722,17,False,0,ZF_1.jpg,0,w,ZF_1_15.png,17,correct,w,659,198038.93,198697.98,2,14,15
17,M250722,18,False,0,Tamanid_1.jpg,0,q,Tamanid_1_14.png,18,correct,q,4086,204642.83,208729.73,2,17,14
18,M250722,19,False,0,Finger_1.jpg,0,q,Finger_1_14.png,19,correct,q,1091,214678.65,215769.86,2,17,14
19,M250722,20,False,0,Sapota_1.jpg,0,s,Sapota_1_17.png,20,correct,s,1337,221712.7,223049.85,2,16,17
20,M250722,21,False,0,Noni_1.jpg,0,a,Noni_1_16.png,21,correct,a,1011,228996.99,230008.2,2,15,16
21,M250722,22,False,0,Ake_1.jpg,0,s,Ake_1_17.png,22,correct,s,1033,235951.02,236984.45,2,16,17
22,M250722,23,False,0,Ackee_1.jpg,0,a,Ackee_1_16.png,23,correct,a,1115,242925.1,244040.2,2,15,16
23,M250722,24,False,0,Gac_1.jpg,0,w,Gac_1_15.png,24,correct,w,883,249989.18,250873.17,2,14,15
24,M250722,25,False,0,Ackee_1.jpg,0,s,Ackee_1_17.png,25,correct,s,1111,256833.18,257945.15,2,15,17
